Spektrum aufgenommen für  MESS   vom Mittwoch, 24. März 2021 um  14:23
Start=9000; Stop=3000; Step=5; Delay=250
Wellenlänge [Ä]  	Meßwert [mV]  
5700,000000	0,023810
5701,000000	0,021368
5702,000000	0,012210
5703,000000	0,036343
5704,000000	0,018315
5705,000000	0,020147
5706,000000	0,021368
5707,000000	0,017705
5708,000000	0,015263
5709,000000	0,009337
5710,000000	0,030525
5711,000000	0,032967
5712,000000	0,031746
5713,000000	0,037851
5714,000000	0,026862
5715,000000	0,019536
5716,000000	0,020147
5717,000000	0,000000
5718,000000	0,044567
5719,000000	0,010379
5720,000000	0,034188
5721,000000	0,036020
5722,000000	0,028083
5723,000000	0,029304
5724,000000	0,023810
5725,000000	0,000000
5726,000000	0,004274
5727,000000	0,042125
5728,000000	0,042735
5729,000000	0,029915
5730,000000	0,022589
5731,000000	0,019536
5732,000000	0,024420
5733,000000	0,024420
5734,000000	0,018315
5735,000000	0,020147
5736,000000	0,023810
5737,000000	0,017705
5738,000000	0,021368
5739,000000	0,025641
5740,000000	0,015873
5741,000000	0,023199
5742,000000	0,020757
5743,000000	0,023199
5744,000000	0,023810
5745,000000	0,026862
5746,000000	0,038462
5747,000000	0,062882
5748,000000	0,090965
5749,000000	0,131258
5750,000000	0,183761
5751,000000	0,242369
5752,000000	0,307692
5753,000000	0,374847
5754,000000	0,442613
5755,000000	0,512821
5756,000000	0,581807
5757,000000	0,654457
5758,000000	0,709402
5759,000000	0,787546
5760,000000	0,853480
5761,000000	0,916972
5762,000000	0,985563
5763,000000	1,059219
5764,000000	1,120269
5765,000000	1,177045
5766,000000	1,231990
5767,000000	1,276557
5768,000000	1,315629
5769,000000	1,346764
5770,000000	1,356532
5771,000000	1,362637
5772,000000	1,359585
5773,000000	1,361416
5774,000000	1,365690
5775,000000	1,362027
5776,000000	1,368742
5777,000000	1,365690
5778,000000	1,369963
5779,000000	1,369963
5780,000000	1,378510
5781,000000	1,377289
5782,000000	1,379731
5783,000000	1,383394
5784,000000	1,385836
5785,000000	1,393773
5786,000000	1,387668
5787,000000	1,393162
5788,000000	1,396825
5789,000000	1,388889
5790,000000	1,373626
5791,000000	1,348596
5792,000000	1,304640
5793,000000	1,247001
5794,000000	1,183761
5795,000000	1,114774
5796,000000	1,043956
5797,000000	0,967643
5798,000000	0,894994
5799,000000	0,821734
5800,000000	0,750305
5801,000000	0,673993
5802,000000	0,600733
5803,000000	0,526862
5804,000000	0,455433
5805,000000	0,365690
5806,000000	0,302198
5807,000000	0,246032
5808,000000	0,183761
5809,000000	0,130037
5810,000000	0,091575
5811,000000	0,051893
5812,000000	0,034799
5813,000000	0,025031
5814,000000	0,025641
5815,000000	0,014042
5816,000000	0,025031
5817,000000	0,025031
5818,000000	0,025031
5819,000000	0,027473
5820,000000	0,028083
5821,000000	0,041514
5822,000000	0,027473
5823,000000	0,021978
5824,000000	0,018926
5825,000000	0,029304
5826,000000	0,024420
5827,000000	0,019105
5828,000000	0,000000
5829,000000	0,017094
5830,000000	0,024420
5831,000000	0,031746
5832,000000	0,034799
5833,000000	0,050672
5834,000000	0,026252
5835,000000	0,026252
5836,000000	0,020147
5837,000000	0,019536
5838,000000	0,020757
5839,000000	0,017705
5840,000000	0,022589
5841,000000	0,023810
5842,000000	0,018926
5843,000000	0,018315
5844,000000	0,021368
5845,000000	0,019536
5846,000000	0,018315
5847,000000	0,022589
5848,000000	0,025641
5849,000000	0,014652
5850,000000	0,020757
5851,000000	0,018315
5852,000000	0,020147
5853,000000	0,022589
5854,000000	0,023810
5855,000000	0,018315
5856,000000	0,020147
5857,000000	0,018926
5858,000000	0,019105
5859,000000	0,021978
5860,000000	0,018926
