Spektrum aufgenommen für  MESS   vom Mittwoch, 24. März 2021 um  14:17
Start=9000; Stop=3000; Step=5; Delay=250
Wellenlänge [Ä]  	Meßwert [mV]  
5700,000000	0,016484
5701,000000	0,015263
5702,000000	0,024420
5703,000000	0,021978
5704,000000	0,029915
5705,000000	0,018315
5706,000000	0,014042
5707,000000	0,015083
5708,000000	0,021978
5709,000000	0,026862
5710,000000	0,021978
5711,000000	0,015263
5712,000000	0,020147
5713,000000	0,020254
5714,000000	0,017705
5715,000000	0,015263
5716,000000	0,017094
5717,000000	0,023810
5718,000000	0,020147
5719,000000	0,000000
5720,000000	0,019680
5721,000000	0,023199
5722,000000	0,021368
5723,000000	0,035194
5724,000000	0,023702
5725,000000	0,011600
5726,000000	0,004274
5727,000000	0,015263
5728,000000	0,034188
5729,000000	0,023810
5730,000000	0,014652
5731,000000	0,006716
5732,000000	0,016484
5733,000000	0,026862
5734,000000	0,035409
5735,000000	0,019536
5736,000000	0,021368
5737,000000	0,014652
5738,000000	0,022589
5739,000000	0,014652
5740,000000	0,023810
5741,000000	0,017705
5742,000000	0,020757
5743,000000	0,024420
5744,000000	0,021368
5745,000000	0,020254
5746,000000	0,021978
5747,000000	0,024420
5748,000000	0,013431
5749,000000	0,007937
5750,000000	0,031746
5751,000000	0,028083
5752,000000	0,028694
5753,000000	0,036020
5754,000000	0,059219
5755,000000	0,103175
5756,000000	0,106227
5757,000000	0,180708
5758,000000	0,253968
5759,000000	0,310996
5760,000000	0,385226
5761,000000	0,452381
5762,000000	0,521978
5763,000000	0,589133
5764,000000	0,653846
5765,000000	0,744811
5766,000000	0,760899
5767,000000	0,823565
5768,000000	0,894994
5769,000000	0,909646
5770,000000	0,924298
5771,000000	0,907994
5772,000000	0,873016
5773,000000	0,819902
5774,000000	0,730769
5775,000000	0,697192
5776,000000	0,660921
5777,000000	0,648352
5778,000000	0,641636
5779,000000	0,600122
5780,000000	0,592796
5781,000000	0,610501
5782,000000	0,617216
5783,000000	0,620879
5784,000000	0,646520
5785,000000	0,678877
5786,000000	0,722833
5787,000000	0,777167
5788,000000	0,827839
5789,000000	0,881563
5790,000000	0,915751
5791,000000	0,937118
5792,000000	0,928571
5793,000000	0,905372
5794,000000	0,815629
5795,000000	0,796093
5796,000000	0,705128
5797,000000	0,688034
5798,000000	0,605617
5799,000000	0,536810
5800,000000	0,427961
5801,000000	0,375458
5802,000000	0,297314
5803,000000	0,230769
5804,000000	0,175214
5805,000000	0,116606
5806,000000	0,079365
5807,000000	0,030525
5808,000000	0,009158
5809,000000	0,023199
5810,000000	0,021978
5811,000000	0,082310
5812,000000	0,042125
5813,000000	0,029915
5814,000000	0,025031
5815,000000	0,022589
5816,000000	0,020147
5817,000000	0,007937
5818,000000	0,042735
5819,000000	0,000000
5820,000000	0,020757
5821,000000	0,034799
5822,000000	0,018315
5823,000000	0,011600
5824,000000	0,004884
5825,000000	0,030525
5826,000000	0,015263
5827,000000	0,001221
5828,000000	0,004884
5829,000000	0,026252
5830,000000	0,032321
5831,000000	0,020254
5832,000000	0,016232
5833,000000	0,013431
5834,000000	0,021978
5835,000000	0,001293
5836,000000	0,021368
5837,000000	0,040904
5838,000000	0,000000
5839,000000	0,043346
5840,000000	0,004274
5841,000000	0,023199
5842,000000	0,021978
5843,000000	0,023199
5844,000000	0,031746
5845,000000	0,016484
5846,000000	0,025031
5847,000000	0,019536
5848,000000	0,015263
5849,000000	0,018926
5850,000000	0,026575
5851,000000	0,021368
5852,000000	0,015263
5853,000000	0,020757
5854,000000	0,018926
5855,000000	0,021978
5856,000000	0,018315
5857,000000	0,019536
5858,000000	0,015873
5859,000000	0,018315
5860,000000	0,017094
