# 09_12_2020_16_51_06_AP_63_Gitter_1851
# Messung der Beugung an Spalten und Gittern
# 6.3_Gitter
# position(Nr) position(mm) Messwerte(V)
0,0000	0,0000	0,0075
1,0000	0,0626	0,0072
2,0000	0,1253	0,0070
3,0000	0,1879	0,0076
4,0000	0,2506	0,0072
5,0000	0,3132	0,0072
6,0000	0,3758	0,0072
7,0000	0,4385	0,0083
8,0000	0,5011	0,0085
9,0000	0,5637	0,0079
10,0000	0,6264	0,0088
11,0000	0,6890	0,0079
12,0000	0,7517	0,0074
13,0000	0,8143	0,0072
14,0000	0,8769	0,0079
15,0000	0,9396	0,0079
16,0000	1,0022	0,0070
17,0000	1,0649	0,0066
18,0000	1,1275	0,0074
19,0000	1,1901	0,0076
20,0000	1,2528	0,0062
21,0000	1,3154	0,0066
22,0000	1,3780	0,0066
23,0000	1,4407	0,0059
24,0000	1,5033	0,0075
25,0000	1,5660	0,0067
26,0000	1,6286	0,0068
27,0000	1,6912	0,0066
28,0000	1,7539	0,0059
29,0000	1,8165	0,0059
30,0000	1,8792	0,0074
31,0000	1,9418	0,0065
32,0000	2,0044	0,0067
33,0000	2,0671	0,0066
34,0000	2,1297	0,0077
35,0000	2,1923	0,0068
36,0000	2,2550	0,0061
37,0000	2,3176	0,0070
38,0000	2,3803	0,0067
39,0000	2,4429	0,0063
40,0000	2,5055	0,0062
41,0000	2,5682	0,0063
42,0000	2,6308	0,0065
43,0000	2,6934	0,0068
44,0000	2,7561	0,0065
45,0000	2,8187	0,0063
46,0000	2,8814	0,0068
47,0000	2,9440	0,0066
48,0000	3,0066	0,0066
49,0000	3,0693	0,0065
50,0000	3,1319	0,0074
51,0000	3,1946	0,0062
52,0000	3,2572	0,0063
53,0000	3,3198	0,0066
54,0000	3,3825	0,0071
55,0000	3,4451	0,0067
56,0000	3,5077	0,0068
57,0000	3,5704	0,0059
58,0000	3,6330	0,0065
59,0000	3,6957	0,0071
60,0000	3,7583	0,0063
61,0000	3,8209	0,0072
62,0000	3,8836	0,0063
63,0000	3,9462	0,0072
64,0000	4,0089	0,0063
65,0000	4,0715	0,0065
66,0000	4,1341	0,0059
67,0000	4,1968	0,0068
68,0000	4,2594	0,0068
69,0000	4,3220	0,0059
70,0000	4,3847	0,0067
71,0000	4,4473	0,0065
72,0000	4,5100	0,0067
73,0000	4,5726	0,0063
74,0000	4,6352	0,0062
75,0000	4,6979	0,0067
76,0000	4,7605	0,0067
77,0000	4,8232	0,0059
78,0000	4,8858	0,0065
79,0000	4,9484	0,0062
80,0000	5,0111	0,0067
81,0000	5,0737	0,0068
82,0000	5,1363	0,0063
83,0000	5,1990	0,0075
84,0000	5,2616	0,0061
85,0000	5,3243	0,0070
86,0000	5,3869	0,0058
87,0000	5,4495	0,0068
88,0000	5,5122	0,0065
89,0000	5,5748	0,0068
90,0000	5,6375	0,0062
91,0000	5,7001	0,0072
92,0000	5,7627	0,0061
93,0000	5,8254	0,0072
94,0000	5,8880	0,0067
95,0000	5,9506	0,0063
96,0000	6,0133	0,0070
97,0000	6,0759	0,0070
98,0000	6,1386	0,0074
99,0000	6,2012	0,0070
100,0000	6,2638	0,0076
101,0000	6,3265	0,0071
102,0000	6,3891	0,0062
103,0000	6,4518	0,0059
104,0000	6,5144	0,0070
105,0000	6,5770	0,0063
106,0000	6,6397	0,0061
107,0000	6,7023	0,0068
108,0000	6,7649	0,0063
109,0000	6,8276	0,0062
110,0000	6,8902	0,0057
111,0000	6,9529	0,0071
112,0000	7,0155	0,0072
113,0000	7,0781	0,0058
114,0000	7,1408	0,0067
115,0000	7,2034	0,0061
116,0000	7,2661	0,0072
117,0000	7,3287	0,0062
118,0000	7,3913	0,0061
119,0000	7,4540	0,0071
120,0000	7,5166	0,0070
121,0000	7,5792	0,0065
122,0000	7,6419	0,0063
123,0000	7,7045	0,0071
124,0000	7,7672	0,0065
125,0000	7,8298	0,0068
126,0000	7,8924	0,0062
127,0000	7,9551	0,0063
128,0000	8,0177	0,0072
129,0000	8,0803	0,0068
130,0000	8,1430	0,0058
131,0000	8,2056	0,0070
132,0000	8,2683	0,0068
133,0000	8,3309	0,0065
134,0000	8,3935	0,0075
135,0000	8,4562	0,0076
136,0000	8,5188	0,0068
137,0000	8,5815	0,0063
138,0000	8,6441	0,0068
139,0000	8,7067	0,0063
140,0000	8,7694	0,0071
141,0000	8,8320	0,0068
142,0000	8,8946	0,0062
143,0000	8,9573	0,0074
144,0000	9,0199	0,0077
145,0000	9,0826	0,0068
146,0000	9,1452	0,0067
147,0000	9,2078	0,0068
148,0000	9,2705	0,0070
149,0000	9,3331	0,0067
150,0000	9,3958	0,0068
151,0000	9,4584	0,0066
152,0000	9,5210	0,0079
153,0000	9,5837	0,0065
154,0000	9,6463	0,0065
155,0000	9,7089	0,0070
156,0000	9,7716	0,0068
157,0000	9,8342	0,0061
158,0000	9,8969	0,0059
159,0000	9,9595	0,0066
160,0000	10,0221	0,0068
161,0000	10,0848	0,0062
162,0000	10,1474	0,0070
163,0000	10,2101	0,0065
164,0000	10,2727	0,0065
165,0000	10,3353	0,0063
166,0000	10,3980	0,0063
167,0000	10,4606	0,0071
168,0000	10,5232	0,0062
169,0000	10,5859	0,0067
170,0000	10,6485	0,0070
171,0000	10,7112	0,0061
172,0000	10,7738	0,0066
173,0000	10,8364	0,0067
174,0000	10,8991	0,0066
175,0000	10,9617	0,0062
176,0000	11,0244	0,0071
177,0000	11,0870	0,0068
178,0000	11,1496	0,0063
179,0000	11,2123	0,0072
180,0000	11,2749	0,0062
181,0000	11,3375	0,0070
182,0000	11,4002	0,0074
183,0000	11,4628	0,0067
184,0000	11,5255	0,0067
185,0000	11,5881	0,0067
186,0000	11,6507	0,0061
187,0000	11,7134	0,0067
188,0000	11,7760	0,0066
189,0000	11,8387	0,0074
190,0000	11,9013	0,0057
191,0000	11,9639	0,0067
192,0000	12,0266	0,0070
193,0000	12,0892	0,0065
194,0000	12,1518	0,0063
195,0000	12,2145	0,0070
196,0000	12,2771	0,0074
197,0000	12,3398	0,0071
198,0000	12,4024	0,0059
199,0000	12,4650	0,0068
200,0000	12,5277	0,0065
201,0000	12,5903	0,0071
202,0000	12,6530	0,0062
203,0000	12,7156	0,0075
204,0000	12,7782	0,0072
205,0000	12,8409	0,0074
206,0000	12,9035	0,0081
207,0000	12,9661	0,0085
208,0000	13,0288	0,0077
209,0000	13,0914	0,0080
210,0000	13,1541	0,0087
211,0000	13,2167	0,0102
212,0000	13,2793	0,0114
213,0000	13,3420	0,0132
214,0000	13,4046	0,0151
215,0000	13,4672	0,0167
216,0000	13,5299	0,0182
217,0000	13,5925	0,0181
218,0000	13,6552	0,0195
219,0000	13,7178	0,0214
220,0000	13,7804	0,0220
221,0000	13,8431	0,0230
222,0000	13,9057	0,0239
223,0000	13,9684	0,0239
224,0000	14,0310	0,0223
225,0000	14,0936	0,0222
226,0000	14,1563	0,0204
227,0000	14,2189	0,0194
228,0000	14,2815	0,0176
229,0000	14,3442	0,0165
230,0000	14,4068	0,0158
231,0000	14,4695	0,0136
232,0000	14,5321	0,0138
233,0000	14,5947	0,0119
234,0000	14,6574	0,0099
235,0000	14,7200	0,0084
236,0000	14,7827	0,0089
237,0000	14,8453	0,0084
238,0000	14,9079	0,0074
239,0000	14,9706	0,0075
240,0000	15,0332	0,0074
241,0000	15,0958	0,0068
242,0000	15,1585	0,0065
243,0000	15,2211	0,0063
244,0000	15,2838	0,0066
245,0000	15,3464	0,0065
246,0000	15,4090	0,0067
247,0000	15,4717	0,0075
248,0000	15,5343	0,0066
249,0000	15,5970	0,0068
250,0000	15,6596	0,0065
251,0000	15,7222	0,0066
252,0000	15,7849	0,0067
253,0000	15,8475	0,0065
254,0000	15,9101	0,0065
255,0000	15,9728	0,0070
256,0000	16,0354	0,0070
257,0000	16,0981	0,0072
258,0000	16,1607	0,0067
259,0000	16,2233	0,0071
260,0000	16,2860	0,0070
261,0000	16,3486	0,0072
262,0000	16,4113	0,0068
263,0000	16,4739	0,0066
264,0000	16,5365	0,0075
265,0000	16,5992	0,0063
266,0000	16,6618	0,0067
267,0000	16,7244	0,0067
268,0000	16,7871	0,0057
269,0000	16,8497	0,0066
270,0000	16,9124	0,0074
271,0000	16,9750	0,0066
272,0000	17,0376	0,0058
273,0000	17,1003	0,0068
274,0000	17,1629	0,0070
275,0000	17,2256	0,0067
276,0000	17,2882	0,0065
277,0000	17,3508	0,0074
278,0000	17,4135	0,0067
279,0000	17,4761	0,0070
280,0000	17,5387	0,0066
281,0000	17,6014	0,0065
282,0000	17,6640	0,0072
283,0000	17,7267	0,0061
284,0000	17,7893	0,0068
285,0000	17,8519	0,0074
286,0000	17,9146	0,0058
287,0000	17,9772	0,0072
288,0000	18,0399	0,0068
289,0000	18,1025	0,0065
290,0000	18,1651	0,0066
291,0000	18,2278	0,0062
292,0000	18,2904	0,0071
293,0000	18,3530	0,0066
294,0000	18,4157	0,0066
295,0000	18,4783	0,0068
296,0000	18,5410	0,0068
297,0000	18,6036	0,0070
298,0000	18,6662	0,0070
299,0000	18,7289	0,0063
300,0000	18,7915	0,0062
301,0000	18,8541	0,0062
302,0000	18,9168	0,0066
303,0000	18,9794	0,0066
304,0000	19,0421	0,0062
305,0000	19,1047	0,0067
306,0000	19,1673	0,0063
307,0000	19,2300	0,0068
308,0000	19,2926	0,0061
309,0000	19,3553	0,0074
310,0000	19,4179	0,0067
311,0000	19,4805	0,0063
312,0000	19,5432	0,0071
313,0000	19,6058	0,0063
314,0000	19,6684	0,0076
315,0000	19,7311	0,0066
316,0000	19,7937	0,0066
317,0000	19,8564	0,0072
318,0000	19,9190	0,0071
319,0000	19,9816	0,0061
320,0000	20,0443	0,0074
321,0000	20,1069	0,0066
322,0000	20,1696	0,0065
323,0000	20,2322	0,0071
324,0000	20,2948	0,0070
325,0000	20,3575	0,0070
326,0000	20,4201	0,0072
327,0000	20,4827	0,0066
328,0000	20,5454	0,0063
329,0000	20,6080	0,0066
330,0000	20,6707	0,0072
331,0000	20,7333	0,0067
332,0000	20,7959	0,0067
333,0000	20,8586	0,0067
334,0000	20,9212	0,0062
335,0000	20,9839	0,0070
336,0000	21,0465	0,0067
337,0000	21,1091	0,0062
338,0000	21,1718	0,0071
339,0000	21,2344	0,0066
340,0000	21,2970	0,0071
341,0000	21,3597	0,0075
342,0000	21,4223	0,0071
343,0000	21,4850	0,0079
344,0000	21,5476	0,0070
345,0000	21,6102	0,0075
346,0000	21,6729	0,0077
347,0000	21,7355	0,0067
348,0000	21,7982	0,0062
349,0000	21,8608	0,0070
350,0000	21,9234	0,0070
351,0000	21,9861	0,0071
352,0000	22,0487	0,0070
353,0000	22,1113	0,0070
354,0000	22,1740	0,0067
355,0000	22,2366	0,0058
356,0000	22,2993	0,0070
357,0000	22,3619	0,0075
358,0000	22,4245	0,0077
359,0000	22,4872	0,0076
360,0000	22,5498	0,0062
361,0000	22,6125	0,0067
362,0000	22,6751	0,0067
363,0000	22,7377	0,0072
364,0000	22,8004	0,0068
365,0000	22,8630	0,0068
366,0000	22,9256	0,0065
367,0000	22,9883	0,0065
368,0000	23,0509	0,0063
369,0000	23,1136	0,0067
370,0000	23,1762	0,0068
371,0000	23,2388	0,0068
372,0000	23,3015	0,0063
373,0000	23,3641	0,0072
374,0000	23,4268	0,0066
375,0000	23,4894	0,0059
376,0000	23,5520	0,0066
377,0000	23,6147	0,0062
378,0000	23,6773	0,0067
379,0000	23,7399	0,0066
380,0000	23,8026	0,0068
381,0000	23,8652	0,0067
382,0000	23,9279	0,0076
383,0000	23,9905	0,0068
384,0000	24,0531	0,0068
385,0000	24,1158	0,0067
386,0000	24,1784	0,0076
387,0000	24,2410	0,0066
388,0000	24,3037	0,0065
389,0000	24,3663	0,0066
390,0000	24,4290	0,0068
391,0000	24,4916	0,0074
392,0000	24,5542	0,0071
393,0000	24,6169	0,0063
394,0000	24,6795	0,0066
395,0000	24,7422	0,0068
396,0000	24,8048	0,0066
397,0000	24,8674	0,0065
398,0000	24,9301	0,0071
399,0000	24,9927	0,0075
400,0000	25,0553	0,0066
401,0000	25,1180	0,0066
402,0000	25,1806	0,0075
403,0000	25,2433	0,0085
404,0000	25,3059	0,0068
405,0000	25,3685	0,0068
406,0000	25,4312	0,0074
407,0000	25,4938	0,0075
408,0000	25,5565	0,0076
409,0000	25,6191	0,0066
410,0000	25,6817	0,0068
411,0000	25,7444	0,0077
412,0000	25,8070	0,0070
413,0000	25,8696	0,0088
414,0000	25,9323	0,0090
415,0000	25,9949	0,0097
416,0000	26,0576	0,0092
417,0000	26,1202	0,0090
418,0000	26,1828	0,0112
419,0000	26,2455	0,0146
420,0000	26,3081	0,0164
421,0000	26,3708	0,0190
422,0000	26,4334	0,0231
423,0000	26,4960	0,0323
424,0000	26,5587	0,0440
425,0000	26,6213	0,0566
426,0000	26,6839	0,0660
427,0000	26,7466	0,0739
428,0000	26,8092	0,0842
429,0000	26,8719	0,0932
430,0000	26,9345	0,1007
431,0000	26,9971	0,1076
432,0000	27,0598	0,1169
433,0000	27,1224	0,1266
434,0000	27,1851	0,1348
435,0000	27,2477	0,1357
436,0000	27,3103	0,1311
437,0000	27,3730	0,1249
438,0000	27,4356	0,1196
439,0000	27,4982	0,1160
440,0000	27,5609	0,1093
441,0000	27,6235	0,0983
442,0000	27,6862	0,0856
443,0000	27,7488	0,0763
444,0000	27,8114	0,0709
445,0000	27,8741	0,0615
446,0000	27,9367	0,0502
447,0000	27,9994	0,0396
448,0000	28,0620	0,0303
449,0000	28,1246	0,0218
450,0000	28,1873	0,0158
451,0000	28,2499	0,0143
452,0000	28,3125	0,0115
453,0000	28,3752	0,0096
454,0000	28,4378	0,0075
455,0000	28,5005	0,0080
456,0000	28,5631	0,0066
457,0000	28,6257	0,0075
458,0000	28,6884	0,0076
459,0000	28,7510	0,0071
460,0000	28,8137	0,0074
461,0000	28,8763	0,0067
462,0000	28,9389	0,0067
463,0000	29,0016	0,0075
464,0000	29,0642	0,0072
465,0000	29,1268	0,0074
466,0000	29,1895	0,0072
467,0000	29,2521	0,0074
468,0000	29,3148	0,0076
469,0000	29,3774	0,0058
470,0000	29,4400	0,0070
471,0000	29,5027	0,0079
472,0000	29,5653	0,0067
473,0000	29,6279	0,0072
474,0000	29,6906	0,0065
475,0000	29,7532	0,0074
476,0000	29,8159	0,0074
477,0000	29,8785	0,0070
478,0000	29,9411	0,0070
479,0000	30,0038	0,0067
480,0000	30,0664	0,0075
481,0000	30,1291	0,0070
482,0000	30,1917	0,0074
483,0000	30,2543	0,0074
484,0000	30,3170	0,0068
485,0000	30,3796	0,0074
486,0000	30,4422	0,0072
487,0000	30,5049	0,0074
488,0000	30,5675	0,0083
489,0000	30,6302	0,0071
490,0000	30,6928	0,0071
491,0000	30,7554	0,0088
492,0000	30,8181	0,0075
493,0000	30,8807	0,0062
494,0000	30,9434	0,0070
495,0000	31,0060	0,0068
496,0000	31,0686	0,0068
497,0000	31,1313	0,0068
498,0000	31,1939	0,0079
499,0000	31,2565	0,0068
500,0000	31,3192	0,0075
501,0000	31,3818	0,0068
502,0000	31,4445	0,0063
503,0000	31,5071	0,0066
504,0000	31,5697	0,0065
505,0000	31,6324	0,0067
506,0000	31,6950	0,0072
507,0000	31,7577	0,0067
508,0000	31,8203	0,0079
509,0000	31,8829	0,0072
510,0000	31,9456	0,0079
511,0000	32,0082	0,0071
512,0000	32,0708	0,0062
513,0000	32,1335	0,0065
514,0000	32,1961	0,0067
515,0000	32,2588	0,0075
516,0000	32,3214	0,0074
517,0000	32,3840	0,0075
518,0000	32,4467	0,0077
519,0000	32,5093	0,0068
520,0000	32,5720	0,0071
521,0000	32,6346	0,0077
522,0000	32,6972	0,0072
523,0000	32,7599	0,0075
524,0000	32,8225	0,0068
525,0000	32,8851	0,0077
526,0000	32,9478	0,0075
527,0000	33,0104	0,0072
528,0000	33,0731	0,0076
529,0000	33,1357	0,0076
530,0000	33,1983	0,0075
531,0000	33,2610	0,0070
532,0000	33,3236	0,0074
533,0000	33,3863	0,0072
534,0000	33,4489	0,0075
535,0000	33,5115	0,0072
536,0000	33,5742	0,0076
537,0000	33,6368	0,0074
538,0000	33,6994	0,0079
539,0000	33,7621	0,0063
540,0000	33,8247	0,0075
541,0000	33,8874	0,0065
542,0000	33,9500	0,0068
543,0000	34,0126	0,0062
544,0000	34,0753	0,0065
545,0000	34,1379	0,0072
546,0000	34,2006	0,0071
547,0000	34,2632	0,0072
548,0000	34,3258	0,0076
549,0000	34,3885	0,0072
550,0000	34,4511	0,0077
551,0000	34,5137	0,0079
552,0000	34,5764	0,0084
553,0000	34,6390	0,0071
554,0000	34,7017	0,0065
555,0000	34,7643	0,0063
556,0000	34,8269	0,0075
557,0000	34,8896	0,0079
558,0000	34,9522	0,0085
559,0000	35,0148	0,0084
560,0000	35,0775	0,0076
561,0000	35,1401	0,0076
562,0000	35,2028	0,0075
563,0000	35,2654	0,0076
564,0000	35,3280	0,0075
565,0000	35,3907	0,0071
566,0000	35,4533	0,0072
567,0000	35,5160	0,0072
568,0000	35,5786	0,0077
569,0000	35,6412	0,0077
570,0000	35,7039	0,0076
571,0000	35,7665	0,0068
572,0000	35,8291	0,0072
573,0000	35,8918	0,0080
574,0000	35,9544	0,0076
575,0000	36,0171	0,0085
576,0000	36,0797	0,0070
577,0000	36,1423	0,0067
578,0000	36,2050	0,0072
579,0000	36,2676	0,0072
580,0000	36,3303	0,0079
581,0000	36,3929	0,0076
582,0000	36,4555	0,0081
583,0000	36,5182	0,0074
584,0000	36,5808	0,0085
585,0000	36,6434	0,0068
586,0000	36,7061	0,0066
587,0000	36,7687	0,0067
588,0000	36,8314	0,0072
589,0000	36,8940	0,0072
590,0000	36,9566	0,0075
591,0000	37,0193	0,0080
592,0000	37,0819	0,0085
593,0000	37,1446	0,0079
594,0000	37,2072	0,0070
595,0000	37,2698	0,0071
596,0000	37,3325	0,0071
597,0000	37,3951	0,0068
598,0000	37,4577	0,0077
599,0000	37,5204	0,0076
600,0000	37,5830	0,0083
601,0000	37,6457	0,0074
602,0000	37,7083	0,0081
603,0000	37,7709	0,0070
604,0000	37,8336	0,0081
605,0000	37,8962	0,0079
606,0000	37,9589	0,0083
607,0000	38,0215	0,0088
608,0000	38,0841	0,0098
609,0000	38,1468	0,0096
610,0000	38,2094	0,0081
611,0000	38,2720	0,0083
612,0000	38,3347	0,0087
613,0000	38,3973	0,0077
614,0000	38,4600	0,0096
615,0000	38,5226	0,0083
616,0000	38,5852	0,0077
617,0000	38,6479	0,0085
618,0000	38,7105	0,0103
619,0000	38,7732	0,0099
620,0000	38,8358	0,0092
621,0000	38,8984	0,0105
622,0000	38,9611	0,0108
623,0000	39,0237	0,0108
624,0000	39,0863	0,0120
625,0000	39,1490	0,0128
626,0000	39,2116	0,0161
627,0000	39,2743	0,0199
628,0000	39,3369	0,0257
629,0000	39,3995	0,0406
630,0000	39,4622	0,0619
631,0000	39,5248	0,0867
632,0000	39,5875	0,1223
633,0000	39,6501	0,1707
634,0000	39,7127	0,2478
635,0000	39,7754	0,3566
636,0000	39,8380	0,4666
637,0000	39,9006	0,5577
638,0000	39,9633	0,6641
639,0000	40,0259	0,7881
640,0000	40,0886	0,8941
641,0000	40,1512	0,9863
642,0000	40,2138	1,0938
643,0000	40,2765	1,2246
644,0000	40,3391	1,3459
645,0000	40,4017	1,4201
646,0000	40,4644	1,4478
647,0000	40,5270	1,4430
648,0000	40,5897	1,4277
649,0000	40,6523	1,4086
650,0000	40,7149	1,3634
651,0000	40,7776	1,2779
652,0000	40,8402	1,1503
653,0000	40,9029	1,0260
654,0000	40,9655	0,9235
655,0000	41,0281	0,8255
656,0000	41,0908	0,6933
657,0000	41,1534	0,5614
658,0000	41,2160	0,4509
659,0000	41,2787	0,3386
660,0000	41,3413	0,2243
661,0000	41,4040	0,1534
662,0000	41,4666	0,1081
663,0000	41,5292	0,0722
664,0000	41,5919	0,0464
665,0000	41,6545	0,0318
666,0000	41,7172	0,0223
667,0000	41,7798	0,0159
668,0000	41,8424	0,0132
669,0000	41,9051	0,0130
670,0000	41,9677	0,0128
671,0000	42,0303	0,0133
672,0000	42,0930	0,0127
673,0000	42,1556	0,0107
674,0000	42,2183	0,0096
675,0000	42,2809	0,0093
676,0000	42,3435	0,0099
677,0000	42,4062	0,0094
678,0000	42,4688	0,0081
679,0000	42,5315	0,0072
680,0000	42,5941	0,0080
681,0000	42,6567	0,0072
682,0000	42,7194	0,0081
683,0000	42,7820	0,0093
684,0000	42,8446	0,0096
685,0000	42,9073	0,0090
686,0000	42,9699	0,0093
687,0000	43,0326	0,0089
688,0000	43,0952	0,0088
689,0000	43,1578	0,0085
690,0000	43,2205	0,0080
691,0000	43,2831	0,0068
692,0000	43,3458	0,0077
693,0000	43,4084	0,0080
694,0000	43,4710	0,0085
695,0000	43,5337	0,0079
696,0000	43,5963	0,0084
697,0000	43,6589	0,0093
698,0000	43,7216	0,0092
699,0000	43,7842	0,0105
700,0000	43,8469	0,0094
701,0000	43,9095	0,0097
702,0000	43,9721	0,0099
703,0000	44,0348	0,0094
704,0000	44,0974	0,0089
705,0000	44,1601	0,0077
706,0000	44,2227	0,0088
707,0000	44,2853	0,0090
708,0000	44,3480	0,0089
709,0000	44,4106	0,0085
710,0000	44,4732	0,0087
711,0000	44,5359	0,0089
712,0000	44,5985	0,0094
713,0000	44,6612	0,0085
714,0000	44,7238	0,0087
715,0000	44,7864	0,0087
716,0000	44,8491	0,0090
717,0000	44,9117	0,0093
718,0000	44,9744	0,0079
719,0000	45,0370	0,0085
720,0000	45,0996	0,0085
721,0000	45,1623	0,0083
722,0000	45,2249	0,0097
723,0000	45,2875	0,0085
724,0000	45,3502	0,0085
725,0000	45,4128	0,0084
726,0000	45,4755	0,0081
727,0000	45,5381	0,0088
728,0000	45,6007	0,0079
729,0000	45,6634	0,0080
730,0000	45,7260	0,0085
731,0000	45,7886	0,0084
732,0000	45,8513	0,0090
733,0000	45,9139	0,0102
734,0000	45,9766	0,0107
735,0000	46,0392	0,0097
736,0000	46,1018	0,0096
737,0000	46,1645	0,0089
738,0000	46,2271	0,0081
739,0000	46,2898	0,0080
740,0000	46,3524	0,0081
741,0000	46,4150	0,0080
742,0000	46,4777	0,0072
743,0000	46,5403	0,0077
744,0000	46,6029	0,0072
745,0000	46,6656	0,0076
746,0000	46,7282	0,0076
747,0000	46,7909	0,0075
748,0000	46,8535	0,0079
749,0000	46,9161	0,0084
750,0000	46,9788	0,0080
751,0000	47,0414	0,0079
752,0000	47,1041	0,0088
753,0000	47,1667	0,0076
754,0000	47,2293	0,0089
755,0000	47,2920	0,0094
756,0000	47,3546	0,0106
757,0000	47,4172	0,0081
758,0000	47,4799	0,0077
759,0000	47,5425	0,0079
760,0000	47,6052	0,0074
761,0000	47,6678	0,0076
762,0000	47,7304	0,0079
763,0000	47,7931	0,0084
764,0000	47,8557	0,0090
765,0000	47,9184	0,0081
766,0000	47,9810	0,0089
767,0000	48,0436	0,0090
768,0000	48,1063	0,0080
769,0000	48,1689	0,0081
770,0000	48,2315	0,0090
771,0000	48,2942	0,0092
772,0000	48,3568	0,0093
773,0000	48,4195	0,0089
774,0000	48,4821	0,0080
775,0000	48,5447	0,0085
776,0000	48,6074	0,0088
777,0000	48,6700	0,0092
778,0000	48,7327	0,0088
779,0000	48,7953	0,0089
780,0000	48,8579	0,0084
781,0000	48,9206	0,0093
782,0000	48,9832	0,0098
783,0000	49,0458	0,0089
784,0000	49,1085	0,0080
785,0000	49,1711	0,0083
786,0000	49,2338	0,0090
787,0000	49,2964	0,0089
788,0000	49,3590	0,0102
789,0000	49,4217	0,0097
790,0000	49,4843	0,0094
791,0000	49,5470	0,0081
792,0000	49,6096	0,0080
793,0000	49,6722	0,0079
794,0000	49,7349	0,0083
795,0000	49,7975	0,0102
796,0000	49,8601	0,0101
797,0000	49,9228	0,0102
798,0000	49,9854	0,0088
799,0000	50,0481	0,0087
800,0000	50,1107	0,0084
801,0000	50,1733	0,0085
802,0000	50,2360	0,0085
803,0000	50,2986	0,0080
804,0000	50,3613	0,0085
805,0000	50,4239	0,0089
806,0000	50,4865	0,0094
807,0000	50,5492	0,0099
808,0000	50,6118	0,0103
809,0000	50,6744	0,0085
810,0000	50,7371	0,0087
811,0000	50,7997	0,0110
812,0000	50,8624	0,0097
813,0000	50,9250	0,0089
814,0000	50,9876	0,0094
815,0000	51,0503	0,0097
816,0000	51,1129	0,0108
817,0000	51,1755	0,0118
818,0000	51,2382	0,0128
819,0000	51,3008	0,0143
820,0000	51,3635	0,0160
821,0000	51,4261	0,0167
822,0000	51,4887	0,0156
823,0000	51,5514	0,0159
824,0000	51,6140	0,0168
825,0000	51,6767	0,0178
826,0000	51,7393	0,0169
827,0000	51,8019	0,0164
828,0000	51,8646	0,0176
829,0000	51,9272	0,0174
830,0000	51,9898	0,0163
831,0000	52,0525	0,0154
832,0000	52,1151	0,0191
833,0000	52,1778	0,0248
834,0000	52,2404	0,0230
835,0000	52,3030	0,0211
836,0000	52,3657	0,0249
837,0000	52,4283	0,0319
838,0000	52,4910	0,0406
839,0000	52,5536	0,0550
840,0000	52,6162	0,0938
841,0000	52,6789	0,1617
842,0000	52,7415	0,2477
843,0000	52,8041	0,3477
844,0000	52,8668	0,5145
845,0000	52,9294	0,7628
846,0000	52,9921	1,0274
847,0000	53,0547	1,2540
848,0000	53,1173	1,5138
849,0000	53,1800	1,8291
850,0000	53,2426	2,0975
851,0000	53,3053	2,3497
852,0000	53,3679	2,7044
853,0000	53,4305	3,0890
854,0000	53,4932	3,4053
855,0000	53,5558	3,5735
856,0000	53,6184	3,6705
857,0000	53,6811	3,7438
858,0000	53,7437	3,7813
859,0000	53,8064	3,7719
860,0000	53,8690	3,6640
861,0000	53,9316	3,4288
862,0000	53,9943	3,0989
863,0000	54,0569	2,8449
864,0000	54,1196	2,6593
865,0000	54,1822	2,4487
866,0000	54,2448	2,0920
867,0000	54,3075	1,7201
868,0000	54,3701	1,4014
869,0000	54,4327	1,1051
870,0000	54,4954	0,8092
871,0000	54,5580	0,5867
872,0000	54,6207	0,4168
873,0000	54,6833	0,2726
874,0000	54,7459	0,1546
875,0000	54,8086	0,0940
876,0000	54,8712	0,0648
877,0000	54,9339	0,0504
878,0000	54,9965	0,0395
879,0000	55,0591	0,0252
880,0000	55,1218	0,0167
881,0000	55,1844	0,0203
882,0000	55,2470	0,0181
883,0000	55,3097	0,0149
884,0000	55,3723	0,0129
885,0000	55,4350	0,0118
886,0000	55,4976	0,0127
887,0000	55,5602	0,0132
888,0000	55,6229	0,0108
889,0000	55,6855	0,0098
890,0000	55,7482	0,0112
891,0000	55,8108	0,0108
892,0000	55,8734	0,0110
893,0000	55,9361	0,0105
894,0000	55,9987	0,0094
895,0000	56,0613	0,0080
896,0000	56,1240	0,0097
897,0000	56,1866	0,0101
898,0000	56,2493	0,0098
899,0000	56,3119	0,0088
900,0000	56,3745	0,0092
901,0000	56,4372	0,0080
902,0000	56,4998	0,0090
903,0000	56,5624	0,0090
904,0000	56,6251	0,0094
905,0000	56,6877	0,0102
906,0000	56,7504	0,0090
907,0000	56,8130	0,0088
908,0000	56,8756	0,0077
909,0000	56,9383	0,0081
910,0000	57,0009	0,0077
911,0000	57,0636	0,0092
912,0000	57,1262	0,0093
913,0000	57,1888	0,0088
914,0000	57,2515	0,0093
915,0000	57,3141	0,0089
916,0000	57,3767	0,0102
917,0000	57,4394	0,0119
918,0000	57,5020	0,0120
919,0000	57,5647	0,0107
920,0000	57,6273	0,0098
921,0000	57,6899	0,0099
922,0000	57,7526	0,0102
923,0000	57,8152	0,0089
924,0000	57,8779	0,0083
925,0000	57,9405	0,0076
926,0000	58,0031	0,0087
927,0000	58,0658	0,0089
928,0000	58,1284	0,0089
929,0000	58,1910	0,0096
930,0000	58,2537	0,0092
931,0000	58,3163	0,0088
932,0000	58,3790	0,0089
933,0000	58,4416	0,0088
934,0000	58,5042	0,0075
935,0000	58,5669	0,0079
936,0000	58,6295	0,0087
937,0000	58,6922	0,0087
938,0000	58,7548	0,0094
939,0000	58,8174	0,0085
940,0000	58,8801	0,0088
941,0000	58,9427	0,0085
942,0000	59,0053	0,0074
943,0000	59,0680	0,0083
944,0000	59,1306	0,0087
945,0000	59,1933	0,0088
946,0000	59,2559	0,0088
947,0000	59,3185	0,0081
948,0000	59,3812	0,0076
949,0000	59,4438	0,0084
950,0000	59,5065	0,0079
951,0000	59,5691	0,0094
952,0000	59,6317	0,0085
953,0000	59,6944	0,0084
954,0000	59,7570	0,0080
955,0000	59,8196	0,0089
956,0000	59,8823	0,0087
957,0000	59,9449	0,0093
958,0000	60,0076	0,0094
959,0000	60,0702	0,0096
960,0000	60,1328	0,0084
961,0000	60,1955	0,0081
962,0000	60,2581	0,0083
963,0000	60,3208	0,0087
964,0000	60,3834	0,0094
965,0000	60,4460	0,0093
966,0000	60,5087	0,0102
967,0000	60,5713	0,0097
968,0000	60,6339	0,0092
969,0000	60,6966	0,0092
970,0000	60,7592	0,0094
971,0000	60,8219	0,0088
972,0000	60,8845	0,0081
973,0000	60,9471	0,0081
974,0000	61,0098	0,0075
975,0000	61,0724	0,0080
976,0000	61,1351	0,0080
977,0000	61,1977	0,0081
978,0000	61,2603	0,0085
979,0000	61,3230	0,0084
980,0000	61,3856	0,0084
981,0000	61,4482	0,0071
982,0000	61,5109	0,0075
983,0000	61,5735	0,0070
984,0000	61,6362	0,0074
985,0000	61,6988	0,0079
986,0000	61,7614	0,0076
987,0000	61,8241	0,0080
988,0000	61,8867	0,0088
989,0000	61,9493	0,0090
990,0000	62,0120	0,0097
991,0000	62,0746	0,0092
992,0000	62,1373	0,0074
993,0000	62,1999	0,0083
994,0000	62,2625	0,0083
995,0000	62,3252	0,0085
996,0000	62,3878	0,0083
997,0000	62,4505	0,0083
998,0000	62,5131	0,0087
999,0000	62,5757	0,0077
1000,0000	62,6384	0,0083
1001,0000	62,7010	0,0074
1002,0000	62,7636	0,0087
1003,0000	62,8263	0,0077
1004,0000	62,8889	0,0074
1005,0000	62,9516	0,0075
1006,0000	63,0142	0,0072
1007,0000	63,0768	0,0088
1008,0000	63,1395	0,0089
1009,0000	63,2021	0,0079
1010,0000	63,2648	0,0089
1011,0000	63,3274	0,0088
1012,0000	63,3900	0,0094
1013,0000	63,4527	0,0085
1014,0000	63,5153	0,0098
1015,0000	63,5779	0,0092
1016,0000	63,6406	0,0085
1017,0000	63,7032	0,0087
1018,0000	63,7659	0,0085
1019,0000	63,8285	0,0092
1020,0000	63,8911	0,0097
1021,0000	63,9538	0,0092
1022,0000	64,0164	0,0089
1023,0000	64,0791	0,0083
1024,0000	64,1417	0,0083
1025,0000	64,2043	0,0085
1026,0000	64,2670	0,0087
1027,0000	64,3296	0,0081
1028,0000	64,3922	0,0101
1029,0000	64,4549	0,0097
1030,0000	64,5175	0,0099
1031,0000	64,5802	0,0098
1032,0000	64,6428	0,0101
1033,0000	64,7054	0,0103
1034,0000	64,7681	0,0120
1035,0000	64,8307	0,0110
1036,0000	64,8934	0,0106
1037,0000	64,9560	0,0098
1038,0000	65,0186	0,0103
1039,0000	65,0813	0,0107
1040,0000	65,1439	0,0102
1041,0000	65,2065	0,0107
1042,0000	65,2692	0,0130
1043,0000	65,3318	0,0121
1044,0000	65,3945	0,0119
1045,0000	65,4571	0,0110
1046,0000	65,5197	0,0125
1047,0000	65,5824	0,0132
1048,0000	65,6450	0,0196
1049,0000	65,7077	0,0269
1050,0000	65,7703	0,0323
1051,0000	65,8329	0,0453
1052,0000	65,8956	0,0666
1053,0000	65,9582	0,1007
1054,0000	66,0208	0,1656
1055,0000	66,0835	0,2586
1056,0000	66,1461	0,3544
1057,0000	66,2088	0,4488
1058,0000	66,2714	0,5587
1059,0000	66,3340	0,6637
1060,0000	66,3967	0,7483
1061,0000	66,4593	0,8652
1062,0000	66,5220	1,0517
1063,0000	66,5846	1,2254
1064,0000	66,6472	1,3704
1065,0000	66,7099	1,4582
1066,0000	66,7725	1,5383
1067,0000	66,8351	1,6189
1068,0000	66,8978	1,6894
1069,0000	66,9604	1,7192
1070,0000	67,0231	1,6953
1071,0000	67,0857	1,6235
1072,0000	67,1483	1,5218
1073,0000	67,2110	1,4354
1074,0000	67,2736	1,3588
1075,0000	67,3362	1,2584
1076,0000	67,3989	1,0880
1077,0000	67,4615	0,9078
1078,0000	67,5242	0,7776
1079,0000	67,5868	0,6228
1080,0000	67,6494	0,4719
1081,0000	67,7121	0,3389
1082,0000	67,7747	0,2520
1083,0000	67,8374	0,1780
1084,0000	67,9000	0,1204
1085,0000	67,9626	0,0801
1086,0000	68,0253	0,0501
1087,0000	68,0879	0,0347
1088,0000	68,1505	0,0297
1089,0000	68,2132	0,0239
1090,0000	68,2758	0,0183
1091,0000	68,3385	0,0152
1092,0000	68,4011	0,0132
1093,0000	68,4637	0,0121
1094,0000	68,5264	0,0119
1095,0000	68,5890	0,0098
1096,0000	68,6517	0,0092
1097,0000	68,7143	0,0081
1098,0000	68,7769	0,0077
1099,0000	68,8396	0,0080
1100,0000	68,9022	0,0084
1101,0000	68,9648	0,0081
1102,0000	69,0275	0,0085
1103,0000	69,0901	0,0096
1104,0000	69,1528	0,0094
1105,0000	69,2154	0,0093
1106,0000	69,2780	0,0079
1107,0000	69,3407	0,0088
1108,0000	69,4033	0,0080
1109,0000	69,4660	0,0081
1110,0000	69,5286	0,0077
1111,0000	69,5912	0,0079
1112,0000	69,6539	0,0068
1113,0000	69,7165	0,0079
1114,0000	69,7791	0,0067
1115,0000	69,8418	0,0065
1116,0000	69,9044	0,0085
1117,0000	69,9671	0,0084
1118,0000	70,0297	0,0075
1119,0000	70,0923	0,0070
1120,0000	70,1550	0,0081
1121,0000	70,2176	0,0080
1122,0000	70,2803	0,0071
1123,0000	70,3429	0,0072
1124,0000	70,4055	0,0076
1125,0000	70,4682	0,0081
1126,0000	70,5308	0,0071
1127,0000	70,5934	0,0072
1128,0000	70,6561	0,0076
1129,0000	70,7187	0,0068
1130,0000	70,7814	0,0080
1131,0000	70,8440	0,0070
1132,0000	70,9066	0,0071
1133,0000	70,9693	0,0070
1134,0000	71,0319	0,0070
1135,0000	71,0946	0,0077
1136,0000	71,1572	0,0076
1137,0000	71,2198	0,0074
1138,0000	71,2825	0,0076
1139,0000	71,3451	0,0075
1140,0000	71,4077	0,0079
1141,0000	71,4704	0,0074
1142,0000	71,5330	0,0084
1143,0000	71,5957	0,0081
1144,0000	71,6583	0,0074
1145,0000	71,7209	0,0066
1146,0000	71,7836	0,0066
1147,0000	71,8462	0,0066
1148,0000	71,9089	0,0070
1149,0000	71,9715	0,0071
1150,0000	72,0341	0,0071
1151,0000	72,0968	0,0079
1152,0000	72,1594	0,0077
1153,0000	72,2220	0,0077
1154,0000	72,2847	0,0076
1155,0000	72,3473	0,0074
1156,0000	72,4100	0,0075
1157,0000	72,4726	0,0083
1158,0000	72,5352	0,0079
1159,0000	72,5979	0,0079
1160,0000	72,6605	0,0075
1161,0000	72,7231	0,0080
1162,0000	72,7858	0,0076
1163,0000	72,8484	0,0071
1164,0000	72,9111	0,0076
1165,0000	72,9737	0,0080
1166,0000	73,0363	0,0079
1167,0000	73,0990	0,0074
1168,0000	73,1616	0,0077
1169,0000	73,2243	0,0072
1170,0000	73,2869	0,0076
1171,0000	73,3495	0,0076
1172,0000	73,4122	0,0070
1173,0000	73,4748	0,0084
1174,0000	73,5374	0,0076
1175,0000	73,6001	0,0068
1176,0000	73,6627	0,0072
1177,0000	73,7254	0,0070
1178,0000	73,7880	0,0063
1179,0000	73,8506	0,0065
1180,0000	73,9133	0,0062
1181,0000	73,9759	0,0071
1182,0000	74,0386	0,0067
1183,0000	74,1012	0,0067
1184,0000	74,1638	0,0068
1185,0000	74,2265	0,0068
1186,0000	74,2891	0,0068
1187,0000	74,3517	0,0061
1188,0000	74,4144	0,0068
1189,0000	74,4770	0,0070
1190,0000	74,5397	0,0075
1191,0000	74,6023	0,0067
1192,0000	74,6649	0,0058
1193,0000	74,7276	0,0075
1194,0000	74,7902	0,0072
1195,0000	74,8529	0,0070
1196,0000	74,9155	0,0070
1197,0000	74,9781	0,0075
1198,0000	75,0408	0,0072
1199,0000	75,1034	0,0077
1200,0000	75,1660	0,0068
1201,0000	75,2287	0,0079
1202,0000	75,2913	0,0062
1203,0000	75,3540	0,0063
1204,0000	75,4166	0,0066
1205,0000	75,4792	0,0065
1206,0000	75,5419	0,0059
1207,0000	75,6045	0,0062
1208,0000	75,6672	0,0065
1209,0000	75,7298	0,0067
1210,0000	75,7924	0,0071
1211,0000	75,8551	0,0072
1212,0000	75,9177	0,0079
1213,0000	75,9803	0,0084
1214,0000	76,0430	0,0081
1215,0000	76,1056	0,0074
1216,0000	76,1683	0,0079
1217,0000	76,2309	0,0079
1218,0000	76,2935	0,0087
1219,0000	76,3562	0,0075
1220,0000	76,4188	0,0079
1221,0000	76,4815	0,0071
1222,0000	76,5441	0,0066
1223,0000	76,6067	0,0071
1224,0000	76,6694	0,0071
1225,0000	76,7320	0,0067
1226,0000	76,7946	0,0067
1227,0000	76,8573	0,0053
1228,0000	76,9199	0,0068
1229,0000	76,9826	0,0070
1230,0000	77,0452	0,0075
1231,0000	77,1078	0,0076
1232,0000	77,1705	0,0068
1233,0000	77,2331	0,0061
1234,0000	77,2958	0,0076
1235,0000	77,3584	0,0076
1236,0000	77,4210	0,0068
1237,0000	77,4837	0,0077
1238,0000	77,5463	0,0083
1239,0000	77,6089	0,0072
1240,0000	77,6716	0,0067
1241,0000	77,7342	0,0075
1242,0000	77,7969	0,0065
1243,0000	77,8595	0,0070
1244,0000	77,9221	0,0065
1245,0000	77,9848	0,0065
1246,0000	78,0474	0,0068
1247,0000	78,1100	0,0074
1248,0000	78,1727	0,0077
1249,0000	78,2353	0,0068
1250,0000	78,2980	0,0081
1251,0000	78,3606	0,0068
1252,0000	78,4232	0,0062
1253,0000	78,4859	0,0077
1254,0000	78,5485	0,0071
1255,0000	78,6112	0,0085
1256,0000	78,6738	0,0079
1257,0000	78,7364	0,0081
1258,0000	78,7991	0,0075
1259,0000	78,8617	0,0076
1260,0000	78,9243	0,0089
1261,0000	78,9870	0,0094
1262,0000	79,0496	0,0112
1263,0000	79,1123	0,0121
1264,0000	79,1749	0,0136
1265,0000	79,2375	0,0178
1266,0000	79,3002	0,0249
1267,0000	79,3628	0,0332
1268,0000	79,4255	0,0446
1269,0000	79,4881	0,0540
1270,0000	79,5507	0,0582
1271,0000	79,6134	0,0651
1272,0000	79,6760	0,0796
1273,0000	79,7386	0,0989
1274,0000	79,8013	0,1162
1275,0000	79,8639	0,1268
1276,0000	79,9266	0,1360
1277,0000	79,9892	0,1487
1278,0000	80,0518	0,1599
1279,0000	80,1145	0,1678
1280,0000	80,1771	0,1711
1281,0000	80,2398	0,1705
1282,0000	80,3024	0,1651
1283,0000	80,3650	0,1607
1284,0000	80,4277	0,1559
1285,0000	80,4903	0,1505
1286,0000	80,5529	0,1378
1287,0000	80,6156	0,1206
1288,0000	80,6782	0,1034
1289,0000	80,7409	0,0885
1290,0000	80,8035	0,0715
1291,0000	80,8661	0,0551
1292,0000	80,9288	0,0440
1293,0000	80,9914	0,0334
1294,0000	81,0541	0,0251
1295,0000	81,1167	0,0187
1296,0000	81,1793	0,0147
1297,0000	81,2420	0,0106
1298,0000	81,3046	0,0092
1299,0000	81,3672	0,0089
1300,0000	81,4299	0,0093
1301,0000	81,4925	0,0092
1302,0000	81,5552	0,0079
1303,0000	81,6178	0,0080
1304,0000	81,6804	0,0075
1305,0000	81,7431	0,0071
1306,0000	81,8057	0,0067
1307,0000	81,8684	0,0061
1308,0000	81,9310	0,0072
1309,0000	81,9936	0,0071
1310,0000	82,0563	0,0074
1311,0000	82,1189	0,0077
1312,0000	82,1815	0,0070
1313,0000	82,2442	0,0067
1314,0000	82,3068	0,0077
1315,0000	82,3695	0,0072
1316,0000	82,4321	0,0075
1317,0000	82,4947	0,0062
1318,0000	82,5574	0,0066
1319,0000	82,6200	0,0068
1320,0000	82,6827	0,0071
1321,0000	82,7453	0,0068
1322,0000	82,8079	0,0070
1323,0000	82,8706	0,0063
1324,0000	82,9332	0,0066
1325,0000	82,9958	0,0062
1326,0000	83,0585	0,0066
1327,0000	83,1211	0,0063
1328,0000	83,1838	0,0065
1329,0000	83,2464	0,0071
1330,0000	83,3090	0,0065
1331,0000	83,3717	0,0066
1332,0000	83,4343	0,0066
1333,0000	83,4969	0,0068
1334,0000	83,5596	0,0059
1335,0000	83,6222	0,0070
1336,0000	83,6849	0,0059
1337,0000	83,7475	0,0065
1338,0000	83,8101	0,0067
1339,0000	83,8728	0,0065
1340,0000	83,9354	0,0067
1341,0000	83,9981	0,0065
1342,0000	84,0607	0,0067
1343,0000	84,1233	0,0071
1344,0000	84,1860	0,0068
1345,0000	84,2486	0,0061
1346,0000	84,3112	0,0063
1347,0000	84,3739	0,0068
1348,0000	84,4365	0,0070
1349,0000	84,4992	0,0074
1350,0000	84,5618	0,0071
1351,0000	84,6244	0,0063
1352,0000	84,6871	0,0066
1353,0000	84,7497	0,0067
1354,0000	84,8124	0,0065
1355,0000	84,8750	0,0062
1356,0000	84,9376	0,0058
1357,0000	85,0003	0,0063
1358,0000	85,0629	0,0053
1359,0000	85,1255	0,0066
1360,0000	85,1882	0,0065
1361,0000	85,2508	0,0065
1362,0000	85,3135	0,0070
1363,0000	85,3761	0,0068
1364,0000	85,4387	0,0070
1365,0000	85,5014	0,0063
1366,0000	85,5640	0,0061
1367,0000	85,6267	0,0059
1368,0000	85,6893	0,0061
1369,0000	85,7519	0,0058
1370,0000	85,8146	0,0062
1371,0000	85,8772	0,0058
1372,0000	85,9398	0,0072
1373,0000	86,0025	0,0065
1374,0000	86,0651	0,0062
1375,0000	86,1278	0,0066
1376,0000	86,1904	0,0068
1377,0000	86,2530	0,0066
1378,0000	86,3157	0,0063
1379,0000	86,3783	0,0061
1380,0000	86,4410	0,0066
1381,0000	86,5036	0,0065
1382,0000	86,5662	0,0063
1383,0000	86,6289	0,0067
1384,0000	86,6915	0,0066
1385,0000	86,7541	0,0068
1386,0000	86,8168	0,0062
1387,0000	86,8794	0,0065
1388,0000	86,9421	0,0066
1389,0000	87,0047	0,0062
1390,0000	87,0673	0,0065
1391,0000	87,1300	0,0066
1392,0000	87,1926	0,0059
1393,0000	87,2553	0,0067
1394,0000	87,3179	0,0058
1395,0000	87,3805	0,0061
1396,0000	87,4432	0,0066
1397,0000	87,5058	0,0052
1398,0000	87,5684	0,0067
1399,0000	87,6311	0,0054
1400,0000	87,6937	0,0062
1401,0000	87,7564	0,0063
1402,0000	87,8190	0,0065
1403,0000	87,8816	0,0061
1404,0000	87,9443	0,0062
1405,0000	88,0069	0,0068
1406,0000	88,0696	0,0059
1407,0000	88,1322	0,0062
1408,0000	88,1948	0,0062
1409,0000	88,2575	0,0062
1410,0000	88,3201	0,0070
1411,0000	88,3827	0,0065
1412,0000	88,4454	0,0063
1413,0000	88,5080	0,0071
1414,0000	88,5707	0,0065
1415,0000	88,6333	0,0063
1416,0000	88,6959	0,0066
1417,0000	88,7586	0,0072
1418,0000	88,8212	0,0070
1419,0000	88,8838	0,0062
1420,0000	88,9465	0,0067
1421,0000	89,0091	0,0063
1422,0000	89,0718	0,0066
1423,0000	89,1344	0,0053
1424,0000	89,1970	0,0062
1425,0000	89,2597	0,0062
1426,0000	89,3223	0,0053
1427,0000	89,3850	0,0062
1428,0000	89,4476	0,0062
1429,0000	89,5102	0,0065
1430,0000	89,5729	0,0072
1431,0000	89,6355	0,0065
1432,0000	89,6981	0,0065
1433,0000	89,7608	0,0063
1434,0000	89,8234	0,0068
1435,0000	89,8861	0,0066
1436,0000	89,9487	0,0067
1437,0000	90,0113	0,0068
1438,0000	90,0740	0,0058
1439,0000	90,1366	0,0065
1440,0000	90,1993	0,0066
1441,0000	90,2619	0,0066
1442,0000	90,3245	0,0066
1443,0000	90,3872	0,0059
1444,0000	90,4498	0,0059
1445,0000	90,5124	0,0061
1446,0000	90,5751	0,0067
1447,0000	90,6377	0,0066
1448,0000	90,7004	0,0068
1449,0000	90,7630	0,0062
1450,0000	90,8256	0,0062
1451,0000	90,8883	0,0061
1452,0000	90,9509	0,0065
1453,0000	91,0136	0,0058
1454,0000	91,0762	0,0067
1455,0000	91,1388	0,0062
1456,0000	91,2015	0,0058
1457,0000	91,2641	0,0063
1458,0000	91,3267	0,0057
1459,0000	91,3894	0,0059
1460,0000	91,4520	0,0065
1461,0000	91,5147	0,0061
1462,0000	91,5773	0,0063
1463,0000	91,6399	0,0053
1464,0000	91,7026	0,0063
1465,0000	91,7652	0,0063
1466,0000	91,8279	0,0061
1467,0000	91,8905	0,0067
1468,0000	91,9531	0,0061
1469,0000	92,0158	0,0063
1470,0000	92,0784	0,0059
1471,0000	92,1410	0,0057
1472,0000	92,2037	0,0058
1473,0000	92,2663	0,0066
1474,0000	92,3290	0,0074
1475,0000	92,3916	0,0068
1476,0000	92,4542	0,0074
1477,0000	92,5169	0,0075
1478,0000	92,5795	0,0079
1479,0000	92,6422	0,0092
1480,0000	92,7048	0,0093
1481,0000	92,7674	0,0101
1482,0000	92,8301	0,0112
1483,0000	92,8927	0,0128
1484,0000	92,9553	0,0143
1485,0000	93,0180	0,0155
1486,0000	93,0806	0,0172
1487,0000	93,1433	0,0183
1488,0000	93,2059	0,0200
1489,0000	93,2685	0,0231
1490,0000	93,3312	0,0252
1491,0000	93,3938	0,0253
1492,0000	93,4565	0,0252
1493,0000	93,5191	0,0245
1494,0000	93,5817	0,0251
1495,0000	93,6444	0,0266
1496,0000	93,7070	0,0279
1497,0000	93,7696	0,0265
1498,0000	93,8323	0,0252
1499,0000	93,8949	0,0222
1500,0000	93,9576	0,0199
1501,0000	94,0202	0,0180
1502,0000	94,0828	0,0152
1503,0000	94,1455	0,0124
1504,0000	94,2081	0,0118
1505,0000	94,2707	0,0106
1506,0000	94,3334	0,0087
1507,0000	94,3960	0,0084
1508,0000	94,4587	0,0068
1509,0000	94,5213	0,0066
1510,0000	94,5839	0,0066
1511,0000	94,6466	0,0071
1512,0000	94,7092	0,0068
1513,0000	94,7719	0,0062
1514,0000	94,8345	0,0067
1515,0000	94,8971	0,0062
1516,0000	94,9598	0,0059
1517,0000	95,0224	0,0063
1518,0000	95,0850	0,0065
1519,0000	95,1477	0,0057
1520,0000	95,2103	0,0063
1521,0000	95,2730	0,0067
1522,0000	95,3356	0,0061
1523,0000	95,3982	0,0056
1524,0000	95,4609	0,0054
1525,0000	95,5235	0,0057
1526,0000	95,5862	0,0071
1527,0000	95,6488	0,0065
1528,0000	95,7114	0,0062
1529,0000	95,7741	0,0066
1530,0000	95,8367	0,0066
1531,0000	95,8993	0,0066
1532,0000	95,9620	0,0054
1533,0000	96,0246	0,0062
1534,0000	96,0873	0,0067
1535,0000	96,1499	0,0063
1536,0000	96,2125	0,0063
1537,0000	96,2752	0,0054
1538,0000	96,3378	0,0058
1539,0000	96,4005	0,0065
1540,0000	96,4631	0,0072
1541,0000	96,5257	0,0058
1542,0000	96,5884	0,0058
1543,0000	96,6510	0,0062
1544,0000	96,7136	0,0062
1545,0000	96,7763	0,0061
1546,0000	96,8389	0,0063
1547,0000	96,9016	0,0054
1548,0000	96,9642	0,0065
1549,0000	97,0268	0,0065
1550,0000	97,0895	0,0066
1551,0000	97,1521	0,0059
1552,0000	97,2148	0,0063
1553,0000	97,2774	0,0061
1554,0000	97,3400	0,0052
1555,0000	97,4027	0,0056
1556,0000	97,4653	0,0075
1557,0000	97,5279	0,0056
1558,0000	97,5906	0,0057
1559,0000	97,6532	0,0058
1560,0000	97,7159	0,0061
1561,0000	97,7785	0,0063
1562,0000	97,8411	0,0066
1563,0000	97,9038	0,0061
1564,0000	97,9664	0,0053
1565,0000	98,0291	0,0058
1566,0000	98,0917	0,0066
1567,0000	98,1543	0,0050
1568,0000	98,2170	0,0066
1569,0000	98,2796	0,0061
1570,0000	98,3422	0,0061
1571,0000	98,4049	0,0066
1572,0000	98,4675	0,0057
1573,0000	98,5302	0,0063
1574,0000	98,5928	0,0057
1575,0000	98,6554	0,0056
1576,0000	98,7181	0,0067
1577,0000	98,7807	0,0062
1578,0000	98,8434	0,0054
1579,0000	98,9060	0,0057
1580,0000	98,9686	0,0057
1581,0000	99,0313	0,0052
1582,0000	99,0939	0,0067
1583,0000	99,1565	0,0062
1584,0000	99,2192	0,0062
1585,0000	99,2818	0,0056
1586,0000	99,3445	0,0063
1587,0000	99,4071	0,0061
1588,0000	99,4697	0,0066
1589,0000	99,5324	0,0057
1590,0000	99,5950	0,0058
1591,0000	99,6576	0,0058
1592,0000	99,7203	0,0061
1593,0000	99,7829	0,0062
1594,0000	99,8456	0,0058
1595,0000	99,9082	0,0058
1596,0000	99,9708	0,0065
1597,0000	100,0335	0,0056
1598,0000	100,0961	0,0059
1599,0000	100,1588	0,0059
1600,0000	100,2214	0,0061
1601,0000	100,2840	0,0054
1602,0000	100,3467	0,0061
1603,0000	100,4093	0,0059
1604,0000	100,4719	0,0053
1605,0000	100,5346	0,0062
1606,0000	100,5972	0,0063
1607,0000	100,6599	0,0062
1608,0000	100,7225	0,0061
1609,0000	100,7851	0,0050
1610,0000	100,8478	0,0062
1611,0000	100,9104	0,0062
1612,0000	100,9731	0,0067
1613,0000	101,0357	0,0061
1614,0000	101,0983	0,0062
1615,0000	101,1610	0,0052
1616,0000	101,2236	0,0057
1617,0000	101,2862	0,0053
1618,0000	101,3489	0,0059
1619,0000	101,4115	0,0056
1620,0000	101,4742	0,0066
1621,0000	101,5368	0,0058
1622,0000	101,5994	0,0054
1623,0000	101,6621	0,0058
1624,0000	101,7247	0,0063
1625,0000	101,7874	0,0063
1626,0000	101,8500	0,0056
1627,0000	101,9126	0,0058
1628,0000	101,9753	0,0059
1629,0000	102,0379	0,0062
1630,0000	102,1005	0,0057
1631,0000	102,1632	0,0059
1632,0000	102,2258	0,0058
1633,0000	102,2885	0,0057
1634,0000	102,3511	0,0066
1635,0000	102,4137	0,0062
1636,0000	102,4764	0,0057
1637,0000	102,5390	0,0058
1638,0000	102,6017	0,0057
1639,0000	102,6643	0,0058
1640,0000	102,7269	0,0062
1641,0000	102,7896	0,0061
1642,0000	102,8522	0,0058
1643,0000	102,9148	0,0062
1644,0000	102,9775	0,0063
1645,0000	103,0401	0,0057
1646,0000	103,1028	0,0062
1647,0000	103,1654	0,0056
1648,0000	103,2280	0,0057
1649,0000	103,2907	0,0058
1650,0000	103,3533	0,0061
1651,0000	103,4160	0,0056
1652,0000	103,4786	0,0062
1653,0000	103,5412	0,0056
1654,0000	103,6039	0,0057
1655,0000	103,6665	0,0053
1656,0000	103,7291	0,0059
1657,0000	103,7918	0,0057
1658,0000	103,8544	0,0057
1659,0000	103,9171	0,0057
1660,0000	103,9797	0,0057
1661,0000	104,0423	0,0066
1662,0000	104,1050	0,0063
1663,0000	104,1676	0,0065
1664,0000	104,2303	0,0059
1665,0000	104,2929	0,0058
1666,0000	104,3555	0,0061
1667,0000	104,4182	0,0054
1668,0000	104,4808	0,0057
1669,0000	104,5434	0,0058
1670,0000	104,6061	0,0054
1671,0000	104,6687	0,0057
1672,0000	104,7314	0,0065
1673,0000	104,7940	0,0058
1674,0000	104,8566	0,0062
1675,0000	104,9193	0,0053
1676,0000	104,9819	0,0063
1677,0000	105,0445	0,0054
1678,0000	105,1072	0,0061
1679,0000	105,1698	0,0062
1680,0000	105,2325	0,0061
1681,0000	105,2951	0,0061
1682,0000	105,3577	0,0058
1683,0000	105,4204	0,0058
1684,0000	105,4830	0,0066
1685,0000	105,5457	0,0067
1686,0000	105,6083	0,0059
1687,0000	105,6709	0,0058
1688,0000	105,7336	0,0059
1689,0000	105,7962	0,0063
1690,0000	105,8588	0,0063
1691,0000	105,9215	0,0063
1692,0000	105,9841	0,0065
1693,0000	106,0468	0,0062
1694,0000	106,1094	0,0065
1695,0000	106,1720	0,0058
1696,0000	106,2347	0,0067
1697,0000	106,2973	0,0070
1698,0000	106,3600	0,0074
1699,0000	106,4226	0,0080
1700,0000	106,4852	0,0076
1701,0000	106,5479	0,0077
1702,0000	106,6105	0,0076
1703,0000	106,6731	0,0087
1704,0000	106,7358	0,0085
1705,0000	106,7984	0,0083
1706,0000	106,8611	0,0093
1707,0000	106,9237	0,0090
1708,0000	106,9863	0,0094
1709,0000	107,0490	0,0099
1710,0000	107,1116	0,0103
1711,0000	107,1743	0,0085
1712,0000	107,2369	0,0087
1713,0000	107,2995	0,0092
1714,0000	107,3622	0,0074
1715,0000	107,4248	0,0077
1716,0000	107,4874	0,0076
1717,0000	107,5501	0,0072
1718,0000	107,6127	0,0070
1719,0000	107,6754	0,0066
1720,0000	107,7380	0,0068
1721,0000	107,8006	0,0061
1722,0000	107,8633	0,0059
1723,0000	107,9259	0,0057
1724,0000	107,9886	0,0067
1725,0000	108,0512	0,0058
1726,0000	108,1138	0,0062
1727,0000	108,1765	0,0054
1728,0000	108,2391	0,0056
1729,0000	108,3017	0,0061
1730,0000	108,3644	0,0057
1731,0000	108,4270	0,0063
1732,0000	108,4897	0,0057
1733,0000	108,5523	0,0067
1734,0000	108,6149	0,0065
1735,0000	108,6776	0,0061
1736,0000	108,7402	0,0061
1737,0000	108,8029	0,0054
1738,0000	108,8655	0,0062
1739,0000	108,9281	0,0061
1740,0000	108,9908	0,0067
1741,0000	109,0534	0,0053
1742,0000	109,1160	0,0065
1743,0000	109,1787	0,0062
1744,0000	109,2413	0,0063
1745,0000	109,3040	0,0065
1746,0000	109,3666	0,0063
1747,0000	109,4292	0,0056
1748,0000	109,4919	0,0061
1749,0000	109,5545	0,0061
1750,0000	109,6171	0,0058
1751,0000	109,6798	0,0063
1752,0000	109,7424	0,0059
1753,0000	109,8051	0,0059
1754,0000	109,8677	0,0061
1755,0000	109,9303	0,0065
1756,0000	109,9930	0,0062
1757,0000	110,0556	0,0065
1758,0000	110,1183	0,0056
1759,0000	110,1809	0,0061
1760,0000	110,2435	0,0061
1761,0000	110,3062	0,0061
1762,0000	110,3688	0,0053
1763,0000	110,4314	0,0053
1764,0000	110,4941	0,0068
1765,0000	110,5567	0,0065
1766,0000	110,6194	0,0058
1767,0000	110,6820	0,0058
1768,0000	110,7446	0,0061
1769,0000	110,8073	0,0053
1770,0000	110,8699	0,0057
1771,0000	110,9326	0,0065
1772,0000	110,9952	0,0056
1773,0000	111,0578	0,0056
1774,0000	111,1205	0,0057
1775,0000	111,1831	0,0059
1776,0000	111,2457	0,0058
1777,0000	111,3084	0,0065
1778,0000	111,3710	0,0061
1779,0000	111,4337	0,0056
1780,0000	111,4963	0,0058
1781,0000	111,5589	0,0054
1782,0000	111,6216	0,0066
1783,0000	111,6842	0,0056
1784,0000	111,7469	0,0057
1785,0000	111,8095	0,0057
1786,0000	111,8721	0,0062
1787,0000	111,9348	0,0057
1788,0000	111,9974	0,0058
1789,0000	112,0600	0,0054
1790,0000	112,1227	0,0067
1791,0000	112,1853	0,0061
1792,0000	112,2480	0,0062
1793,0000	112,3106	0,0067
1794,0000	112,3732	0,0067
1795,0000	112,4359	0,0056
1796,0000	112,4985	0,0065
1797,0000	112,5612	0,0062
1798,0000	112,6238	0,0052
1799,0000	112,6864	0,0065
1800,0000	112,7491	0,0063
1801,0000	112,8117	0,0057
1802,0000	112,8743	0,0062
1803,0000	112,9370	0,0062
1804,0000	112,9996	0,0059
1805,0000	113,0623	0,0061
1806,0000	113,1249	0,0063
1807,0000	113,1875	0,0053
1808,0000	113,2502	0,0062
1809,0000	113,3128	0,0053
1810,0000	113,3755	0,0058
1811,0000	113,4381	0,0063
1812,0000	113,5007	0,0062
1813,0000	113,5634	0,0050
1814,0000	113,6260	0,0058
1815,0000	113,6886	0,0059
1816,0000	113,7513	0,0056
1817,0000	113,8139	0,0058
1818,0000	113,8766	0,0059
1819,0000	113,9392	0,0058
1820,0000	114,0018	0,0063
1821,0000	114,0645	0,0062
1822,0000	114,1271	0,0053
1823,0000	114,1898	0,0063
1824,0000	114,2524	0,0058
1825,0000	114,3150	0,0058
1826,0000	114,3777	0,0065
1827,0000	114,4403	0,0057
1828,0000	114,5029	0,0063
1829,0000	114,5656	0,0057
1830,0000	114,6282	0,0057
1831,0000	114,6909	0,0056
1832,0000	114,7535	0,0065
1833,0000	114,8161	0,0059
1834,0000	114,8788	0,0062
1835,0000	114,9414	0,0056
1836,0000	115,0040	0,0059
1837,0000	115,0667	0,0065
1838,0000	115,1293	0,0059
1839,0000	115,1920	0,0067
1840,0000	115,2546	0,0054
1841,0000	115,3172	0,0061
1842,0000	115,3799	0,0065
1843,0000	115,4425	0,0068
1844,0000	115,5052	0,0046
1845,0000	115,5678	0,0053
1846,0000	115,6304	0,0063
1847,0000	115,6931	0,0059
1848,0000	115,7557	0,0054
1849,0000	115,8183	NaN
1850,0000	115,8810	0,0000
