# 09_12_2020_14_56_04_AP_61_SpaltB_926
# Messung der Beugung an Spalten und Gittern
# 6.1_Spalt B
# position(Nr) position(mm) Messwerte(V)
0,0000	0,0000	0,0538
1,0000	0,1253	0,0508
2,0000	0,2506	0,0545
3,0000	0,3758	0,0543
4,0000	0,5011	0,0599
5,0000	0,6264	0,0608
6,0000	0,7517	0,0649
7,0000	0,8769	0,0619
8,0000	1,0022	0,0632
9,0000	1,1275	0,0601
10,0000	1,2528	0,0617
11,0000	1,3780	0,0616
12,0000	1,5033	0,0660
13,0000	1,6286	0,0669
14,0000	1,7539	0,0725
15,0000	1,8792	0,0717
16,0000	2,0044	0,0741
17,0000	2,1297	0,0697
18,0000	2,2550	0,0697
19,0000	2,3803	0,0635
20,0000	2,5055	0,0617
21,0000	2,6308	0,0522
22,0000	2,7561	0,0486
23,0000	2,8814	0,0407
24,0000	3,0066	0,0405
25,0000	3,1319	0,0370
26,0000	3,2572	0,0387
27,0000	3,3825	0,0350
28,0000	3,5077	0,0371
29,0000	3,6330	0,0333
30,0000	3,7583	0,0342
31,0000	3,8836	0,0298
32,0000	4,0089	0,0309
33,0000	4,1341	0,0272
34,0000	4,2594	0,0287
35,0000	4,3847	0,0258
36,0000	4,5100	0,0274
37,0000	4,6352	0,0247
38,0000	4,7605	0,0269
39,0000	4,8858	0,0247
40,0000	5,0111	0,0267
41,0000	5,1363	0,0245
42,0000	5,2616	0,0273
43,0000	5,3869	0,0251
44,0000	5,5122	0,0278
45,0000	5,6375	0,0253
46,0000	5,7627	0,0280
47,0000	5,8880	0,0262
48,0000	6,0133	0,0278
49,0000	6,1386	0,0267
50,0000	6,2638	0,0291
51,0000	6,3891	0,0278
52,0000	6,5144	0,0300
53,0000	6,6397	0,0291
54,0000	6,7649	0,0302
55,0000	6,8902	0,0297
56,0000	7,0155	0,0322
57,0000	7,1408	0,0305
58,0000	7,2661	0,0325
59,0000	7,3913	0,0321
60,0000	7,5166	0,0327
61,0000	7,6419	0,0318
62,0000	7,7672	0,0333
63,0000	7,8924	0,0324
64,0000	8,0177	0,0328
65,0000	8,1430	0,0318
66,0000	8,2683	0,0324
67,0000	8,3935	0,0314
68,0000	8,5188	0,0313
69,0000	8,6441	0,0303
70,0000	8,7694	0,0310
71,0000	8,8946	0,0294
72,0000	9,0199	0,0303
73,0000	9,1452	0,0290
74,0000	9,2705	0,0291
75,0000	9,3958	0,0283
76,0000	9,5210	0,0284
77,0000	9,6463	0,0273
78,0000	9,7716	0,0278
79,0000	9,8969	0,0263
80,0000	10,0221	0,0265
81,0000	10,1474	0,0258
82,0000	10,2727	0,0256
83,0000	10,3980	0,0249
84,0000	10,5232	0,0255
85,0000	10,6485	0,0251
86,0000	10,7738	0,0251
87,0000	10,8991	0,0254
88,0000	11,0244	0,0251
89,0000	11,1496	0,0263
90,0000	11,2749	0,0256
91,0000	11,4002	0,0265
92,0000	11,5255	0,0265
93,0000	11,6507	0,0280
94,0000	11,7760	0,0276
95,0000	11,9013	0,0287
96,0000	12,0266	0,0291
97,0000	12,1518	0,0308
98,0000	12,2771	0,0307
99,0000	12,4024	0,0320
100,0000	12,5277	0,0322
101,0000	12,6530	0,0334
102,0000	12,7782	0,0332
103,0000	12,9035	0,0356
104,0000	13,0288	0,0346
105,0000	13,1541	0,0361
106,0000	13,2793	0,0349
107,0000	13,4046	0,0362
108,0000	13,5299	0,0355
109,0000	13,6552	0,0373
110,0000	13,7804	0,0359
111,0000	13,9057	0,0370
112,0000	14,0310	0,0357
113,0000	14,1563	0,0380
114,0000	14,2815	0,0354
115,0000	14,4068	0,0373
116,0000	14,5321	0,0349
117,0000	14,6574	0,0369
118,0000	14,7827	0,0343
119,0000	14,9079	0,0356
120,0000	15,0332	0,0328
121,0000	15,1585	0,0348
122,0000	15,2838	0,0316
123,0000	15,4090	0,0328
124,0000	15,5343	0,0296
125,0000	15,6596	0,0313
126,0000	15,7849	0,0280
127,0000	15,9101	0,0297
128,0000	16,0354	0,0267
129,0000	16,1607	0,0282
130,0000	16,2860	0,0259
131,0000	16,4113	0,0282
132,0000	16,5365	0,0256
133,0000	16,6618	0,0273
134,0000	16,7871	0,0256
135,0000	16,9124	0,0276
136,0000	17,0376	0,0255
137,0000	17,1629	0,0289
138,0000	17,2882	0,0266
139,0000	17,4135	0,0305
140,0000	17,5387	0,0282
141,0000	17,6640	0,0322
142,0000	17,7893	0,0311
143,0000	17,9146	0,0344
144,0000	18,0399	0,0330
145,0000	18,1651	0,0371
146,0000	18,2904	0,0366
147,0000	18,4157	0,0401
148,0000	18,5410	0,0392
149,0000	18,6662	0,0427
150,0000	18,7915	0,0414
151,0000	18,9168	0,0451
152,0000	19,0421	0,0436
153,0000	19,1673	0,0464
154,0000	19,2926	0,0447
155,0000	19,4179	0,0478
156,0000	19,5432	0,0449
157,0000	19,6684	0,0477
158,0000	19,7937	0,0457
159,0000	19,9190	0,0486
160,0000	20,0443	0,0466
161,0000	20,1696	0,0488
162,0000	20,2948	0,0462
163,0000	20,4201	0,0481
164,0000	20,5454	0,0454
165,0000	20,6707	0,0474
166,0000	20,7959	0,0439
167,0000	20,9212	0,0459
168,0000	21,0465	0,0417
169,0000	21,1718	0,0436
170,0000	21,2970	0,0396
171,0000	21,4223	0,0411
172,0000	21,5476	0,0369
173,0000	21,6729	0,0384
174,0000	21,7982	0,0338
175,0000	21,9234	0,0350
176,0000	22,0487	0,0307
177,0000	22,1740	0,0313
178,0000	22,2993	0,0276
179,0000	22,4245	0,0292
180,0000	22,5498	0,0260
181,0000	22,6751	0,0274
182,0000	22,8004	0,0245
183,0000	22,9256	0,0267
184,0000	23,0509	0,0248
185,0000	23,1762	0,0262
186,0000	23,3015	0,0249
187,0000	23,4268	0,0276
188,0000	23,5520	0,0263
189,0000	23,6773	0,0293
190,0000	23,8026	0,0287
191,0000	23,9279	0,0326
192,0000	24,0531	0,0319
193,0000	24,1784	0,0364
194,0000	24,3037	0,0364
195,0000	24,4290	0,0409
196,0000	24,5542	0,0409
197,0000	24,6795	0,0453
198,0000	24,8048	0,0451
199,0000	24,9301	0,0490
200,0000	25,0553	0,0499
201,0000	25,1806	0,0526
202,0000	25,3059	0,0529
203,0000	25,4312	0,0551
204,0000	25,5565	0,0549
205,0000	25,6817	0,0565
206,0000	25,8070	0,0554
207,0000	25,9323	0,0568
208,0000	26,0576	0,0551
209,0000	26,1828	0,0562
210,0000	26,3081	0,0541
211,0000	26,4334	0,0547
212,0000	26,5587	0,0522
213,0000	26,6839	0,0520
214,0000	26,8092	0,0497
215,0000	26,9345	0,0486
216,0000	27,0598	0,0459
217,0000	27,1851	0,0449
218,0000	27,3103	0,0417
219,0000	27,4356	0,0400
220,0000	27,5609	0,0362
221,0000	27,6862	0,0342
222,0000	27,8114	0,0319
223,0000	27,9367	0,0301
224,0000	28,0620	0,0274
225,0000	28,1873	0,0269
226,0000	28,3125	0,0245
227,0000	28,4378	0,0239
228,0000	28,5631	0,0220
229,0000	28,6884	0,0218
230,0000	28,8137	0,0209
231,0000	28,9389	0,0214
232,0000	29,0642	0,0211
233,0000	29,1895	0,0220
234,0000	29,3148	0,0228
235,0000	29,4400	0,0249
236,0000	29,5653	0,0260
237,0000	29,6906	0,0291
238,0000	29,8159	0,0314
239,0000	29,9411	0,0344
240,0000	30,0664	0,0367
241,0000	30,1917	0,0411
242,0000	30,3170	0,0449
243,0000	30,4422	0,0482
244,0000	30,5675	0,0520
245,0000	30,6928	0,0561
246,0000	30,8181	0,0597
247,0000	30,9434	0,0633
248,0000	31,0686	0,0667
249,0000	31,1939	0,0698
250,0000	31,3192	0,0730
251,0000	31,4445	0,0751
252,0000	31,5697	0,0776
253,0000	31,6950	0,0799
254,0000	31,8203	0,0819
255,0000	31,9456	0,0839
256,0000	32,0708	0,0855
257,0000	32,1961	0,0869
258,0000	32,3214	0,0877
259,0000	32,4467	0,0876
260,0000	32,5720	0,0876
261,0000	32,6972	0,0857
262,0000	32,8225	0,0852
263,0000	32,9478	0,0819
264,0000	33,0731	0,0807
265,0000	33,1983	0,0764
266,0000	33,3236	0,0730
267,0000	33,4489	0,0683
268,0000	33,5742	0,0650
269,0000	33,6994	0,0589
270,0000	33,8247	0,0558
271,0000	33,9500	0,0495
272,0000	34,0753	0,0471
273,0000	34,2006	0,0424
274,0000	34,3258	0,0401
275,0000	34,4511	0,0341
276,0000	34,5764	0,0323
277,0000	34,7017	0,0279
278,0000	34,8269	0,0268
279,0000	34,9522	0,0233
280,0000	35,0775	0,0243
281,0000	35,2028	0,0214
282,0000	35,3280	0,0234
283,0000	35,4533	0,0213
284,0000	35,5786	0,0256
285,0000	35,7039	0,0266
286,0000	35,8291	0,0335
287,0000	35,9544	0,0369
288,0000	36,0797	0,0450
289,0000	36,2050	0,0497
290,0000	36,3303	0,0585
291,0000	36,4555	0,0639
292,0000	36,5808	0,0731
293,0000	36,7061	0,0785
294,0000	36,8314	0,0892
295,0000	36,9566	0,0937
296,0000	37,0819	0,1049
297,0000	37,2072	0,1104
298,0000	37,3325	0,1196
299,0000	37,4577	0,1238
300,0000	37,5830	0,1326
301,0000	37,7083	0,1361
302,0000	37,8336	0,1439
303,0000	37,9589	0,1455
304,0000	38,0841	0,1530
305,0000	38,2094	0,1540
306,0000	38,3347	0,1579
307,0000	38,4600	0,1577
308,0000	38,5852	0,1607
309,0000	38,7105	0,1583
310,0000	38,8358	0,1583
311,0000	38,9611	0,1519
312,0000	39,0863	0,1494
313,0000	39,2116	0,1424
314,0000	39,3369	0,1383
315,0000	39,4622	0,1286
316,0000	39,5875	0,1227
317,0000	39,7127	0,1116
318,0000	39,8380	0,1044
319,0000	39,9633	0,0932
320,0000	40,0886	0,0865
321,0000	40,2138	0,0754
322,0000	40,3391	0,0682
323,0000	40,4644	0,0596
324,0000	40,5897	0,0541
325,0000	40,7149	0,0449
326,0000	40,8402	0,0421
327,0000	40,9655	0,0367
328,0000	41,0908	0,0365
329,0000	41,2160	0,0340
330,0000	41,3413	0,0375
331,0000	41,4666	0,0391
332,0000	41,5919	0,0463
333,0000	41,7172	0,0525
334,0000	41,8424	0,0634
335,0000	41,9677	0,0741
336,0000	42,0930	0,0889
337,0000	42,2183	0,1029
338,0000	42,3435	0,1227
339,0000	42,4688	0,1403
340,0000	42,5941	0,1616
341,0000	42,7194	0,1811
342,0000	42,8446	0,2050
343,0000	42,9699	0,2256
344,0000	43,0952	0,2506
345,0000	43,2205	0,2718
346,0000	43,3458	0,2954
347,0000	43,4710	0,3151
348,0000	43,5963	0,3366
349,0000	43,7216	0,3553
350,0000	43,8469	0,3736
351,0000	43,9721	0,3882
352,0000	44,0974	0,4023
353,0000	44,2227	0,4116
354,0000	44,3480	0,4204
355,0000	44,4732	0,4235
356,0000	44,5985	0,4260
357,0000	44,7238	0,4243
358,0000	44,8491	0,4204
359,0000	44,9744	0,4133
360,0000	45,0996	0,4015
361,0000	45,2249	0,3876
362,0000	45,3502	0,3722
363,0000	45,4755	0,3532
364,0000	45,6007	0,3308
365,0000	45,7260	0,3066
366,0000	45,8513	0,2809
367,0000	45,9766	0,2536
368,0000	46,1018	0,2258
369,0000	46,2271	0,1982
370,0000	46,3524	0,1698
371,0000	46,4777	0,1430
372,0000	46,6029	0,1182
373,0000	46,7282	0,0958
374,0000	46,8535	0,0759
375,0000	46,9788	0,0615
376,0000	47,1041	0,0501
377,0000	47,2293	0,0446
378,0000	47,3546	0,0451
379,0000	47,4799	0,0542
380,0000	47,6052	0,0693
381,0000	47,7304	0,0943
382,0000	47,8557	0,1272
383,0000	47,9810	0,1738
384,0000	48,1063	0,2288
385,0000	48,2315	0,2975
386,0000	48,3568	0,3750
387,0000	48,4821	0,4700
388,0000	48,6074	0,5737
389,0000	48,7327	0,6933
390,0000	48,8579	0,8240
391,0000	48,9832	0,9723
392,0000	49,1085	1,1301
393,0000	49,2338	1,3045
394,0000	49,3590	1,4860
395,0000	49,4843	1,6866
396,0000	49,6096	1,8961
397,0000	49,7349	2,1217
398,0000	49,8601	2,3566
399,0000	49,9854	2,6046
400,0000	50,1107	2,8557
401,0000	50,2360	3,1235
402,0000	50,3613	3,3891
403,0000	50,4865	3,6703
404,0000	50,6118	3,9543
405,0000	50,7371	4,2588
406,0000	50,8624	4,5532
407,0000	50,9876	4,8451
408,0000	51,1129	5,1298
409,0000	51,2382	5,4109
410,0000	51,3635	5,6888
411,0000	51,4887	5,9693
412,0000	51,6140	6,2354
413,0000	51,7393	6,4905
414,0000	51,8646	6,7314
415,0000	51,9898	6,9666
416,0000	52,1151	7,1873
417,0000	52,2404	7,3957
418,0000	52,3657	7,5916
419,0000	52,4910	7,7666
420,0000	52,6162	7,9181
421,0000	52,7415	8,0538
422,0000	52,8668	8,1644
423,0000	52,9921	8,2626
424,0000	53,1173	8,3345
425,0000	53,2426	8,3874
426,0000	53,3679	8,4217
427,0000	53,4932	8,4247
428,0000	53,6184	8,4039
429,0000	53,7437	8,3633
430,0000	53,8690	8,2985
431,0000	53,9943	8,2172
432,0000	54,1196	8,1116
433,0000	54,2448	7,9864
434,0000	54,3701	7,8413
435,0000	54,4954	7,6753
436,0000	54,6207	7,4935
437,0000	54,7459	7,2945
438,0000	54,8712	7,0790
439,0000	54,9965	6,8532
440,0000	55,1218	6,6146
441,0000	55,2470	6,3667
442,0000	55,3723	6,0974
443,0000	55,4976	5,8232
444,0000	55,6229	5,5480
445,0000	55,7482	5,2618
446,0000	55,8734	4,9680
447,0000	55,9987	4,6812
448,0000	56,1240	4,3912
449,0000	56,2493	4,1121
450,0000	56,3745	3,8331
451,0000	56,4998	3,5541
452,0000	56,6251	3,2845
453,0000	56,7504	3,0229
454,0000	56,8756	2,7635
455,0000	57,0009	2,5117
456,0000	57,1262	2,2680
457,0000	57,2515	2,0346
458,0000	57,3767	1,8125
459,0000	57,5020	1,6003
460,0000	57,6273	1,4099
461,0000	57,7526	1,2283
462,0000	57,8779	1,0593
463,0000	58,0031	0,8989
464,0000	58,1284	0,7542
465,0000	58,2537	0,6212
466,0000	58,3790	0,5061
467,0000	58,5042	0,4044
468,0000	58,6295	0,3195
469,0000	58,7548	0,2421
470,0000	58,8801	0,1813
471,0000	59,0053	0,1299
472,0000	59,1306	0,0918
473,0000	59,2559	0,0616
474,0000	59,3812	0,0438
475,0000	59,5065	0,0313
476,0000	59,6317	0,0307
477,0000	59,7570	0,0323
478,0000	59,8823	0,0462
479,0000	60,0076	0,0604
480,0000	60,1328	0,0836
481,0000	60,2581	0,1062
482,0000	60,3834	0,1361
483,0000	60,5087	0,1632
484,0000	60,6339	0,1965
485,0000	60,7592	0,2260
486,0000	60,8845	0,2608
487,0000	61,0098	0,2875
488,0000	61,1351	0,3178
489,0000	61,2603	0,3415
490,0000	61,3856	0,3663
491,0000	61,5109	0,3847
492,0000	61,6362	0,4058
493,0000	61,7614	0,4167
494,0000	61,8867	0,4309
495,0000	62,0120	0,4365
496,0000	62,1373	0,4419
497,0000	62,2625	0,4397
498,0000	62,3878	0,4381
499,0000	62,5131	0,4277
500,0000	62,6384	0,4184
501,0000	62,7636	0,4033
502,0000	62,8889	0,3878
503,0000	63,0142	0,3676
504,0000	63,1395	0,3481
505,0000	63,2648	0,3253
506,0000	63,3900	0,3034
507,0000	63,5153	0,2786
508,0000	63,6406	0,2562
509,0000	63,7659	0,2316
510,0000	63,8911	0,2097
511,0000	64,0164	0,1857
512,0000	64,1417	0,1660
513,0000	64,2670	0,1445
514,0000	64,3922	0,1268
515,0000	64,5175	0,1087
516,0000	64,6428	0,0933
517,0000	64,7681	0,0794
518,0000	64,8934	0,0668
519,0000	65,0186	0,0558
520,0000	65,1439	0,0468
521,0000	65,2692	0,0402
522,0000	65,3945	0,0338
523,0000	65,5197	0,0307
524,0000	65,6450	0,0282
525,0000	65,7703	0,0271
526,0000	65,8956	0,0282
527,0000	66,0208	0,0309
528,0000	66,1461	0,0347
529,0000	66,2714	0,0402
530,0000	66,3967	0,0452
531,0000	66,5220	0,0531
532,0000	66,6472	0,0602
533,0000	66,7725	0,0700
534,0000	66,8978	0,0773
535,0000	67,0231	0,0878
536,0000	67,1483	0,0959
537,0000	67,2736	0,1069
538,0000	67,3989	0,1136
539,0000	67,5242	0,1242
540,0000	67,6494	0,1315
541,0000	67,7747	0,1405
542,0000	67,9000	0,1446
543,0000	68,0253	0,1525
544,0000	68,1505	0,1550
545,0000	68,2758	0,1603
546,0000	68,4011	0,1599
547,0000	68,5264	0,1623
548,0000	68,6517	0,1592
549,0000	68,7769	0,1596
550,0000	68,9022	0,1532
551,0000	69,0275	0,1516
552,0000	69,1528	0,1434
553,0000	69,2780	0,1392
554,0000	69,4033	0,1294
555,0000	69,5286	0,1245
556,0000	69,6539	0,1133
557,0000	69,7791	0,1075
558,0000	69,9044	0,0974
559,0000	70,0297	0,0918
560,0000	70,1550	0,0807
561,0000	70,2803	0,0752
562,0000	70,4055	0,0656
563,0000	70,5308	0,0613
564,0000	70,6561	0,0522
565,0000	70,7814	0,0484
566,0000	70,9066	0,0410
567,0000	71,0319	0,0384
568,0000	71,1572	0,0318
569,0000	71,2825	0,0311
570,0000	71,4077	0,0261
571,0000	71,5330	0,0264
572,0000	71,6583	0,0233
573,0000	71,7836	0,0242
574,0000	71,9089	0,0223
575,0000	72,0341	0,0242
576,0000	72,1594	0,0236
577,0000	72,2847	0,0267
578,0000	72,4100	0,0266
579,0000	72,5352	0,0298
580,0000	72,6605	0,0311
581,0000	72,7858	0,0344
582,0000	72,9111	0,0367
583,0000	73,0363	0,0406
584,0000	73,1616	0,0429
585,0000	73,2869	0,0474
586,0000	73,4122	0,0491
587,0000	73,5374	0,0535
588,0000	73,6627	0,0550
589,0000	73,7880	0,0576
590,0000	73,9133	0,0591
591,0000	74,0386	0,0613
592,0000	74,1638	0,0619
593,0000	74,2891	0,0629
594,0000	74,4144	0,0628
595,0000	74,5397	0,0632
596,0000	74,6649	0,0628
597,0000	74,7902	0,0622
598,0000	74,9155	0,0615
599,0000	75,0408	0,0612
600,0000	75,1660	0,0593
601,0000	75,2913	0,0581
602,0000	75,4166	0,0573
603,0000	75,5419	0,0550
604,0000	75,6672	0,0535
605,0000	75,7924	0,0513
606,0000	75,9177	0,0497
607,0000	76,0430	0,0472
608,0000	76,1683	0,0454
609,0000	76,2935	0,0429
610,0000	76,4188	0,0417
611,0000	76,5441	0,0382
612,0000	76,6694	0,0371
613,0000	76,7946	0,0341
614,0000	76,9199	0,0334
615,0000	77,0452	0,0302
616,0000	77,1705	0,0299
617,0000	77,2958	0,0267
618,0000	77,4210	0,0268
619,0000	77,5463	0,0244
620,0000	77,6716	0,0253
621,0000	77,7969	0,0225
622,0000	77,9221	0,0236
623,0000	78,0474	0,0221
624,0000	78,1727	0,0232
625,0000	78,2980	0,0218
626,0000	78,4232	0,0243
627,0000	78,5485	0,0224
628,0000	78,6738	0,0258
629,0000	78,7991	0,0240
630,0000	78,9243	0,0276
631,0000	79,0496	0,0266
632,0000	79,1749	0,0298
633,0000	79,3002	0,0289
634,0000	79,4255	0,0325
635,0000	79,5507	0,0318
636,0000	79,6760	0,0359
637,0000	79,8013	0,0350
638,0000	79,9266	0,0387
639,0000	80,0518	0,0373
640,0000	80,1771	0,0415
641,0000	80,3024	0,0401
642,0000	80,4277	0,0431
643,0000	80,5529	0,0417
644,0000	80,6782	0,0452
645,0000	80,8035	0,0427
646,0000	80,9288	0,0453
647,0000	81,0541	0,0427
648,0000	81,1793	0,0448
649,0000	81,3046	0,0418
650,0000	81,4299	0,0438
651,0000	81,5552	0,0397
652,0000	81,6804	0,0404
653,0000	81,8057	0,0365
654,0000	81,9310	0,0374
655,0000	82,0563	0,0345
656,0000	82,1815	0,0346
657,0000	82,3068	0,0316
658,0000	82,4321	0,0323
659,0000	82,5574	0,0285
660,0000	82,6827	0,0298
661,0000	82,8079	0,0260
662,0000	82,9332	0,0262
663,0000	83,0585	0,0238
664,0000	83,1838	0,0257
665,0000	83,3090	0,0247
666,0000	83,4343	0,0258
667,0000	83,5596	0,0245
668,0000	83,6849	0,0253
669,0000	83,8101	0,0238
670,0000	83,9354	0,0253
671,0000	84,0607	0,0244
672,0000	84,1860	0,0249
673,0000	84,3112	0,0244
674,0000	84,4365	0,0262
675,0000	84,5618	0,0256
676,0000	84,6871	0,0265
677,0000	84,8124	0,0264
678,0000	84,9376	0,0278
679,0000	85,0629	0,0269
680,0000	85,1882	0,0287
681,0000	85,3135	0,0285
682,0000	85,4387	0,0300
683,0000	85,5640	0,0298
684,0000	85,6893	0,0309
685,0000	85,8146	0,0311
686,0000	85,9398	0,0317
687,0000	86,0651	0,0327
688,0000	86,1904	0,0336
689,0000	86,3157	0,0340
690,0000	86,4410	0,0344
691,0000	86,5662	0,0353
692,0000	86,6915	0,0351
693,0000	86,8168	0,0364
694,0000	86,9421	0,0358
695,0000	87,0673	0,0367
696,0000	87,1926	0,0360
697,0000	87,3179	0,0375
698,0000	87,4432	0,0358
699,0000	87,5684	0,0361
700,0000	87,6937	0,0344
701,0000	87,8190	0,0352
702,0000	87,9443	0,0327
703,0000	88,0696	0,0339
704,0000	88,1948	0,0319
705,0000	88,3201	0,0331
706,0000	88,4454	0,0305
707,0000	88,5707	0,0321
708,0000	88,6959	0,0302
709,0000	88,8212	0,0313
710,0000	88,9465	0,0288
711,0000	89,0718	0,0303
712,0000	89,1970	0,0280
713,0000	89,3223	0,0300
714,0000	89,4476	0,0274
715,0000	89,5729	0,0283
716,0000	89,6981	0,0266
717,0000	89,8234	0,0288
718,0000	89,9487	0,0256
719,0000	90,0740	0,0279
720,0000	90,1993	0,0252
721,0000	90,3245	0,0280
722,0000	90,4498	0,0249
723,0000	90,5751	0,0265
724,0000	90,7004	0,0236
725,0000	90,8256	0,0268
726,0000	90,9509	0,0245
727,0000	91,0762	0,0271
728,0000	91,2015	0,0249
729,0000	91,3267	0,0278
730,0000	91,4520	0,0260
731,0000	91,5773	0,0296
732,0000	91,7026	0,0273
733,0000	91,8279	0,0303
734,0000	91,9531	0,0282
735,0000	92,0784	0,0318
736,0000	92,2037	0,0298
737,0000	92,3290	0,0324
738,0000	92,4542	0,0304
739,0000	92,5795	0,0332
740,0000	92,7048	0,0319
741,0000	92,8301	0,0347
742,0000	92,9553	0,0337
743,0000	93,0806	0,0371
744,0000	93,2059	0,0375
745,0000	93,3312	0,0427
746,0000	93,4565	0,0448
747,0000	93,5817	0,0512
748,0000	93,7070	0,0562
749,0000	93,8323	0,0669
750,0000	93,9576	0,0758
751,0000	94,0828	0,0876
752,0000	94,2081	0,0943
753,0000	94,3334	0,0974
754,0000	94,4587	0,0947
755,0000	94,5839	0,0910
756,0000	94,7092	0,0909
757,0000	94,8345	0,0928
758,0000	94,9598	0,0958
759,0000	95,0850	0,1008
760,0000	95,2103	0,0998
761,0000	95,3356	0,1014
762,0000	95,4609	0,1007
763,0000	95,5862	0,0974
764,0000	95,7114	0,0943
765,0000	95,8367	0,0909
766,0000	95,9620	0,0881
767,0000	96,0873	0,0873
768,0000	96,2125	0,0874
769,0000	96,3378	0,0872
770,0000	96,4631	0,0873
771,0000	96,5884	0,0872
772,0000	96,7136	0,0868
773,0000	96,8389	0,0843
774,0000	96,9642	0,0821
775,0000	97,0895	0,0765
776,0000	97,2148	0,0714
777,0000	97,3400	0,0651
778,0000	97,4653	0,0611
779,0000	97,5906	0,0571
780,0000	97,7159	0,0571
781,0000	97,8411	0,0570
782,0000	97,9664	0,0582
783,0000	98,0917	0,0584
784,0000	98,2170	0,0612
785,0000	98,3422	0,0604
786,0000	98,4675	0,0609
787,0000	98,5928	0,0571
788,0000	98,7181	0,0548
789,0000	98,8434	0,0488
790,0000	98,9686	0,0478
791,0000	99,0939	0,0442
792,0000	99,2192	0,0466
793,0000	99,3445	0,0464
794,0000	99,4697	0,0499
795,0000	99,5950	0,0510
796,0000	99,7203	0,0553
797,0000	99,8456	0,0556
798,0000	99,9708	0,0599
799,0000	100,0961	0,0586
800,0000	100,2214	0,0613
801,0000	100,3467	0,0594
802,0000	100,4719	0,0604
803,0000	100,5972	0,0557
804,0000	100,7225	0,0564
805,0000	100,8478	0,0513
806,0000	100,9731	0,0519
807,0000	101,0983	0,0477
808,0000	101,2236	0,0495
809,0000	101,3489	0,0460
810,0000	101,4742	0,0484
811,0000	101,5994	0,0457
812,0000	101,7247	0,0487
813,0000	101,8500	0,0457
814,0000	101,9753	0,0492
815,0000	102,1005	0,0460
816,0000	102,2258	0,0509
817,0000	102,3511	0,0499
818,0000	102,4764	0,0551
819,0000	102,6017	0,0556
820,0000	102,7269	0,0607
821,0000	102,8522	0,0603
822,0000	102,9775	0,0635
823,0000	103,1028	0,0604
824,0000	103,2280	0,0623
825,0000	103,3533	0,0569
826,0000	103,4786	0,0571
827,0000	103,6039	0,0531
828,0000	103,7291	0,0542
829,0000	103,8544	0,0508
830,0000	103,9797	0,0523
831,0000	104,1050	0,0499
832,0000	104,2303	0,0513
833,0000	104,3555	0,0488
834,0000	104,4808	0,0491
835,0000	104,6061	0,0474
836,0000	104,7314	0,0488
837,0000	104,8566	0,0469
838,0000	104,9819	0,0488
839,0000	105,1072	0,0482
840,0000	105,2325	0,0511
841,0000	105,3577	0,0526
842,0000	105,4830	0,0554
843,0000	105,6083	0,0560
844,0000	105,7336	0,0593
845,0000	105,8588	0,0610
846,0000	105,9841	0,0643
847,0000	106,1094	0,0660
848,0000	106,2347	0,0703
849,0000	106,3600	0,0723
850,0000	106,4852	0,0752
851,0000	106,6105	0,0771
852,0000	106,7358	0,0784
853,0000	106,8611	0,0783
854,0000	106,9863	0,0766
855,0000	107,1116	0,0745
856,0000	107,2369	0,0699
857,0000	107,3622	0,0650
858,0000	107,4874	0,0597
859,0000	107,6127	0,0533
860,0000	107,7380	0,0482
861,0000	107,8633	0,0455
862,0000	107,9886	0,0437
863,0000	108,1138	0,0447
864,0000	108,2391	0,0457
865,0000	108,3644	0,0485
866,0000	108,4897	0,0489
867,0000	108,6149	0,0513
868,0000	108,7402	0,0505
869,0000	108,8655	0,0512
870,0000	108,9908	0,0506
871,0000	109,1160	0,0531
872,0000	109,2413	0,0527
873,0000	109,3666	0,0551
874,0000	109,4919	0,0537
875,0000	109,6171	0,0552
876,0000	109,7424	0,0522
877,0000	109,8677	0,0517
878,0000	109,9930	0,0470
879,0000	110,1183	0,0466
880,0000	110,2435	0,0420
881,0000	110,3688	0,0424
882,0000	110,4941	0,0395
883,0000	110,6194	0,0415
884,0000	110,7446	0,0389
885,0000	110,8699	0,0411
886,0000	110,9952	0,0383
887,0000	111,1205	0,0418
888,0000	111,2457	0,0393
889,0000	111,3710	0,0422
890,0000	111,4963	0,0400
891,0000	111,6216	0,0435
892,0000	111,7469	0,0409
893,0000	111,8721	0,0446
894,0000	111,9974	0,0417
895,0000	112,1227	0,0451
896,0000	112,2480	0,0421
897,0000	112,3732	0,0449
898,0000	112,4985	0,0420
899,0000	112,6238	0,0442
900,0000	112,7491	0,0416
901,0000	112,8743	0,0447
902,0000	112,9996	0,0429
903,0000	113,1249	0,0458
904,0000	113,2502	0,0432
905,0000	113,3755	0,0455
906,0000	113,5007	0,0424
907,0000	113,6260	0,0449
908,0000	113,7513	0,0424
909,0000	113,8766	0,0459
910,0000	114,0018	0,0437
911,0000	114,1271	0,0469
912,0000	114,2524	0,0456
913,0000	114,3777	0,0482
914,0000	114,5029	0,0468
915,0000	114,6282	0,0484
916,0000	114,7535	0,0464
917,0000	114,8788	0,0477
918,0000	115,0040	0,0444
919,0000	115,1293	0,0465
920,0000	115,2546	0,0439
921,0000	115,3799	0,0460
922,0000	115,5052	0,0440
923,0000	115,6304	0,0451
924,0000	115,7557	NaN
925,0000	115,8810	0,0000
