# 09_12_2020_15_15_08_AP_61_SpaltC_1851
# Messung der Beugung an Spalten und Gittern
# 6.1_Spalt C
# position(Nr) position(mm) Messwerte(V)
0,0000	0,0000	0,0342
1,0000	0,0626	0,0146
2,0000	0,1253	0,0160
3,0000	0,1879	0,0167
4,0000	0,2506	0,0152
5,0000	0,3132	0,0158
6,0000	0,3758	0,0156
7,0000	0,4385	0,0156
8,0000	0,5011	0,0147
9,0000	0,5637	0,0145
10,0000	0,6264	0,0160
11,0000	0,6890	0,0160
12,0000	0,7517	0,0145
13,0000	0,8143	0,0149
14,0000	0,8769	0,0168
15,0000	0,9396	0,0169
16,0000	1,0022	0,0170
17,0000	1,0649	0,0186
18,0000	1,1275	0,0192
19,0000	1,1901	0,0201
20,0000	1,2528	0,0205
21,0000	1,3154	0,0211
22,0000	1,3780	0,0230
23,0000	1,4407	0,0238
24,0000	1,5033	0,0230
25,0000	1,5660	0,0235
26,0000	1,6286	0,0242
27,0000	1,6912	0,0238
28,0000	1,7539	0,0226
29,0000	1,8165	0,0217
30,0000	1,8792	0,0226
31,0000	1,9418	0,0211
32,0000	2,0044	0,0194
33,0000	2,0671	0,0187
34,0000	2,1297	0,0189
35,0000	2,1923	0,0178
36,0000	2,2550	0,0158
37,0000	2,3176	0,0147
38,0000	2,3803	0,0152
39,0000	2,4429	0,0149
40,0000	2,5055	0,0134
41,0000	2,5682	0,0129
42,0000	2,6308	0,0134
43,0000	2,6934	0,0139
44,0000	2,7561	0,0130
45,0000	2,8187	0,0119
46,0000	2,8814	0,0139
47,0000	2,9440	0,0141
48,0000	3,0066	0,0132
49,0000	3,0693	0,0134
50,0000	3,1319	0,0155
51,0000	3,1946	0,0158
52,0000	3,2572	0,0158
53,0000	3,3198	0,0160
54,0000	3,3825	0,0177
55,0000	3,4451	0,0187
56,0000	3,5077	0,0183
57,0000	3,5704	0,0187
58,0000	3,6330	0,0200
59,0000	3,6957	0,0205
60,0000	3,7583	0,0198
61,0000	3,8209	0,0192
62,0000	3,8836	0,0198
63,0000	3,9462	0,0201
64,0000	4,0089	0,0196
65,0000	4,0715	0,0198
66,0000	4,1341	0,0198
67,0000	4,1968	0,0196
68,0000	4,2594	0,0186
69,0000	4,3220	0,0182
70,0000	4,3847	0,0186
71,0000	4,4473	0,0182
72,0000	4,5100	0,0168
73,0000	4,5726	0,0164
74,0000	4,6352	0,0160
75,0000	4,6979	0,0158
76,0000	4,7605	0,0146
77,0000	4,8232	0,0134
78,0000	4,8858	0,0138
79,0000	4,9484	0,0137
80,0000	5,0111	0,0124
81,0000	5,0737	0,0119
82,0000	5,1363	0,0128
83,0000	5,1990	0,0128
84,0000	5,2616	0,0120
85,0000	5,3243	0,0118
86,0000	5,3869	0,0123
87,0000	5,4495	0,0134
88,0000	5,5122	0,0120
89,0000	5,5748	0,0123
90,0000	5,6375	0,0137
91,0000	5,7001	0,0146
92,0000	5,7627	0,0141
93,0000	5,8254	0,0141
94,0000	5,8880	0,0159
95,0000	5,9506	0,0168
96,0000	6,0133	0,0160
97,0000	6,0759	0,0159
98,0000	6,1386	0,0172
99,0000	6,2012	0,0165
100,0000	6,2638	0,0161
101,0000	6,3265	0,0156
102,0000	6,3891	0,0158
103,0000	6,4518	0,0163
104,0000	6,5144	0,0151
105,0000	6,5770	0,0139
106,0000	6,6397	0,0142
107,0000	6,7023	0,0138
108,0000	6,7649	0,0128
109,0000	6,8276	0,0128
110,0000	6,8902	0,0137
111,0000	6,9529	0,0143
112,0000	7,0155	0,0138
113,0000	7,0781	0,0125
114,0000	7,1408	0,0142
115,0000	7,2034	0,0152
116,0000	7,2661	0,0151
117,0000	7,3287	0,0146
118,0000	7,3913	0,0159
119,0000	7,4540	0,0165
120,0000	7,5166	0,0168
121,0000	7,5792	0,0159
122,0000	7,6419	0,0174
123,0000	7,7045	0,0183
124,0000	7,7672	0,0185
125,0000	7,8298	0,0181
126,0000	7,8924	0,0191
127,0000	7,9551	0,0204
128,0000	8,0177	0,0196
129,0000	8,0803	0,0191
130,0000	8,1430	0,0205
131,0000	8,2056	0,0211
132,0000	8,2683	0,0207
133,0000	8,3309	0,0195
134,0000	8,3935	0,0204
135,0000	8,4562	0,0209
136,0000	8,5188	0,0196
137,0000	8,5815	0,0194
138,0000	8,6441	0,0200
139,0000	8,7067	0,0192
140,0000	8,7694	0,0185
141,0000	8,8320	0,0168
142,0000	8,8946	0,0164
143,0000	8,9573	0,0169
144,0000	9,0199	0,0165
145,0000	9,0826	0,0159
146,0000	9,1452	0,0167
147,0000	9,2078	0,0182
148,0000	9,2705	0,0194
149,0000	9,3331	0,0194
150,0000	9,3958	0,0209
151,0000	9,4584	0,0222
152,0000	9,5210	0,0220
153,0000	9,5837	0,0213
154,0000	9,6463	0,0214
155,0000	9,7089	0,0205
156,0000	9,7716	0,0195
157,0000	9,8342	0,0164
158,0000	9,8969	0,0164
159,0000	9,9595	0,0164
160,0000	10,0221	0,0141
161,0000	10,0848	0,0128
162,0000	10,1474	0,0128
163,0000	10,2101	0,0127
164,0000	10,2727	0,0114
165,0000	10,3353	0,0102
166,0000	10,3980	0,0106
167,0000	10,4606	0,0106
168,0000	10,5232	0,0096
169,0000	10,5859	0,0089
170,0000	10,6485	0,0085
171,0000	10,7112	0,0092
172,0000	10,7738	0,0076
173,0000	10,8364	0,0070
174,0000	10,8991	0,0074
175,0000	10,9617	0,0075
176,0000	11,0244	0,0065
177,0000	11,0870	0,0057
178,0000	11,1496	0,0063
179,0000	11,2123	0,0066
180,0000	11,2749	0,0061
181,0000	11,3375	0,0049
182,0000	11,4002	0,0049
183,0000	11,4628	0,0065
184,0000	11,5255	0,0054
185,0000	11,5881	0,0058
186,0000	11,6507	0,0049
187,0000	11,7134	0,0046
188,0000	11,7760	0,0058
189,0000	11,8387	0,0061
190,0000	11,9013	0,0053
191,0000	11,9639	0,0052
192,0000	12,0266	0,0056
193,0000	12,0892	0,0056
194,0000	12,1518	0,0045
195,0000	12,2145	0,0057
196,0000	12,2771	0,0062
197,0000	12,3398	0,0065
198,0000	12,4024	0,0057
199,0000	12,4650	0,0053
200,0000	12,5277	0,0063
201,0000	12,5903	0,0067
202,0000	12,6530	0,0056
203,0000	12,7156	0,0061
204,0000	12,7782	0,0075
205,0000	12,8409	0,0075
206,0000	12,9035	0,0061
207,0000	12,9661	0,0059
208,0000	13,0288	0,0074
209,0000	13,0914	0,0081
210,0000	13,1541	0,0068
211,0000	13,2167	0,0070
212,0000	13,2793	0,0080
213,0000	13,3420	0,0072
214,0000	13,4046	0,0071
215,0000	13,4672	0,0065
216,0000	13,5299	0,0075
217,0000	13,5925	0,0081
218,0000	13,6552	0,0066
219,0000	13,7178	0,0061
220,0000	13,7804	0,0074
221,0000	13,8431	0,0072
222,0000	13,9057	0,0062
223,0000	13,9684	0,0061
224,0000	14,0310	0,0066
225,0000	14,0936	0,0067
226,0000	14,1563	0,0062
227,0000	14,2189	0,0056
228,0000	14,2815	0,0057
229,0000	14,3442	0,0067
230,0000	14,4068	0,0048
231,0000	14,4695	0,0049
232,0000	14,5321	0,0057
233,0000	14,5947	0,0056
234,0000	14,6574	0,0057
235,0000	14,7200	0,0041
236,0000	14,7827	0,0057
237,0000	14,8453	0,0057
238,0000	14,9079	0,0057
239,0000	14,9706	0,0044
240,0000	15,0332	0,0053
241,0000	15,0958	0,0063
242,0000	15,1585	0,0057
243,0000	15,2211	0,0054
244,0000	15,2838	0,0049
245,0000	15,3464	0,0061
246,0000	15,4090	0,0063
247,0000	15,4717	0,0059
248,0000	15,5343	0,0070
249,0000	15,5970	0,0071
250,0000	15,6596	0,0068
251,0000	15,7222	0,0072
252,0000	15,7849	0,0079
253,0000	15,8475	0,0088
254,0000	15,9101	0,0087
255,0000	15,9728	0,0079
256,0000	16,0354	0,0096
257,0000	16,0981	0,0096
258,0000	16,1607	0,0092
259,0000	16,2233	0,0092
260,0000	16,2860	0,0094
261,0000	16,3486	0,0102
262,0000	16,4113	0,0097
263,0000	16,4739	0,0101
264,0000	16,5365	0,0096
265,0000	16,5992	0,0098
266,0000	16,6618	0,0101
267,0000	16,7244	0,0088
268,0000	16,7871	0,0092
269,0000	16,8497	0,0098
270,0000	16,9124	0,0092
271,0000	16,9750	0,0084
272,0000	17,0376	0,0079
273,0000	17,1003	0,0094
274,0000	17,1629	0,0080
275,0000	17,2256	0,0070
276,0000	17,2882	0,0075
277,0000	17,3508	0,0076
278,0000	17,4135	0,0072
279,0000	17,4761	0,0058
280,0000	17,5387	0,0062
281,0000	17,6014	0,0068
282,0000	17,6640	0,0058
283,0000	17,7267	0,0054
284,0000	17,7893	0,0052
285,0000	17,8519	0,0057
286,0000	17,9146	0,0052
287,0000	17,9772	0,0039
288,0000	18,0399	0,0049
289,0000	18,1025	0,0048
290,0000	18,1651	0,0050
291,0000	18,2278	0,0040
292,0000	18,2904	0,0053
293,0000	18,3530	0,0067
294,0000	18,4157	0,0052
295,0000	18,4783	0,0049
296,0000	18,5410	0,0059
297,0000	18,6036	0,0070
298,0000	18,6662	0,0067
299,0000	18,7289	0,0066
300,0000	18,7915	0,0074
301,0000	18,8541	0,0085
302,0000	18,9168	0,0083
303,0000	18,9794	0,0081
304,0000	19,0421	0,0092
305,0000	19,1047	0,0102
306,0000	19,1673	0,0102
307,0000	19,2300	0,0094
308,0000	19,2926	0,0105
309,0000	19,3553	0,0111
310,0000	19,4179	0,0112
311,0000	19,4805	0,0112
312,0000	19,5432	0,0107
313,0000	19,6058	0,0119
314,0000	19,6684	0,0115
315,0000	19,7311	0,0106
316,0000	19,7937	0,0110
317,0000	19,8564	0,0114
318,0000	19,9190	0,0107
319,0000	19,9816	0,0097
320,0000	20,0443	0,0101
321,0000	20,1069	0,0102
322,0000	20,1696	0,0098
323,0000	20,2322	0,0090
324,0000	20,2948	0,0094
325,0000	20,3575	0,0089
326,0000	20,4201	0,0079
327,0000	20,4827	0,0072
328,0000	20,5454	0,0068
329,0000	20,6080	0,0072
330,0000	20,6707	0,0066
331,0000	20,7333	0,0054
332,0000	20,7959	0,0056
333,0000	20,8586	0,0065
334,0000	20,9212	0,0054
335,0000	20,9839	0,0043
336,0000	21,0465	0,0046
337,0000	21,1091	0,0052
338,0000	21,1718	0,0044
339,0000	21,2344	0,0043
340,0000	21,2970	0,0044
341,0000	21,3597	0,0056
342,0000	21,4223	0,0052
343,0000	21,4850	0,0048
344,0000	21,5476	0,0050
345,0000	21,6102	0,0062
346,0000	21,6729	0,0061
347,0000	21,7355	0,0063
348,0000	21,7982	0,0066
349,0000	21,8608	0,0083
350,0000	21,9234	0,0081
351,0000	21,9861	0,0074
352,0000	22,0487	0,0087
353,0000	22,1113	0,0098
354,0000	22,1740	0,0099
355,0000	22,2366	0,0096
356,0000	22,2993	0,0106
357,0000	22,3619	0,0119
358,0000	22,4245	0,0116
359,0000	22,4872	0,0112
360,0000	22,5498	0,0114
361,0000	22,6125	0,0130
362,0000	22,6751	0,0121
363,0000	22,7377	0,0124
364,0000	22,8004	0,0127
365,0000	22,8630	0,0134
366,0000	22,9256	0,0133
367,0000	22,9883	0,0119
368,0000	23,0509	0,0123
369,0000	23,1136	0,0128
370,0000	23,1762	0,0118
371,0000	23,2388	0,0108
372,0000	23,3015	0,0107
373,0000	23,3641	0,0115
374,0000	23,4268	0,0106
375,0000	23,4894	0,0098
376,0000	23,5520	0,0093
377,0000	23,6147	0,0099
378,0000	23,6773	0,0088
379,0000	23,7399	0,0079
380,0000	23,8026	0,0077
381,0000	23,8652	0,0075
382,0000	23,9279	0,0066
383,0000	23,9905	0,0059
384,0000	24,0531	0,0054
385,0000	24,1158	0,0061
386,0000	24,1784	0,0056
387,0000	24,2410	0,0050
388,0000	24,3037	0,0041
389,0000	24,3663	0,0054
390,0000	24,4290	0,0053
391,0000	24,4916	0,0039
392,0000	24,5542	0,0040
393,0000	24,6169	0,0052
394,0000	24,6795	0,0058
395,0000	24,7422	0,0049
396,0000	24,8048	0,0059
397,0000	24,8674	0,0071
398,0000	24,9301	0,0076
399,0000	24,9927	0,0067
400,0000	25,0553	0,0083
401,0000	25,1180	0,0093
402,0000	25,1806	0,0102
403,0000	25,2433	0,0102
404,0000	25,3059	0,0112
405,0000	25,3685	0,0125
406,0000	25,4312	0,0132
407,0000	25,4938	0,0138
408,0000	25,5565	0,0143
409,0000	25,6191	0,0158
410,0000	25,6817	0,0156
411,0000	25,7444	0,0154
412,0000	25,8070	0,0168
413,0000	25,8696	0,0178
414,0000	25,9323	0,0183
415,0000	25,9949	0,0176
416,0000	26,0576	0,0177
417,0000	26,1202	0,0190
418,0000	26,1828	0,0185
419,0000	26,2455	0,0174
420,0000	26,3081	0,0173
421,0000	26,3708	0,0195
422,0000	26,4334	0,0180
423,0000	26,4960	0,0174
424,0000	26,5587	0,0160
425,0000	26,6213	0,0173
426,0000	26,6839	0,0156
427,0000	26,7466	0,0139
428,0000	26,8092	0,0141
429,0000	26,8719	0,0142
430,0000	26,9345	0,0120
431,0000	26,9971	0,0105
432,0000	27,0598	0,0106
433,0000	27,1224	0,0108
434,0000	27,1851	0,0102
435,0000	27,2477	0,0083
436,0000	27,3103	0,0076
437,0000	27,3730	0,0081
438,0000	27,4356	0,0079
439,0000	27,4982	0,0061
440,0000	27,5609	0,0061
441,0000	27,6235	0,0063
442,0000	27,6862	0,0058
443,0000	27,7488	0,0048
444,0000	27,8114	0,0050
445,0000	27,8741	0,0066
446,0000	27,9367	0,0057
447,0000	27,9994	0,0057
448,0000	28,0620	0,0061
449,0000	28,1246	0,0080
450,0000	28,1873	0,0081
451,0000	28,2499	0,0079
452,0000	28,3125	0,0088
453,0000	28,3752	0,0115
454,0000	28,4378	0,0110
455,0000	28,5005	0,0107
456,0000	28,5631	0,0119
457,0000	28,6257	0,0139
458,0000	28,6884	0,0151
459,0000	28,7510	0,0143
460,0000	28,8137	0,0151
461,0000	28,8763	0,0174
462,0000	28,9389	0,0180
463,0000	29,0016	0,0180
464,0000	29,0642	0,0185
465,0000	29,1268	0,0199
466,0000	29,1895	0,0207
467,0000	29,2521	0,0191
468,0000	29,3148	0,0200
469,0000	29,3774	0,0208
470,0000	29,4400	0,0209
471,0000	29,5027	0,0196
472,0000	29,5653	0,0190
473,0000	29,6279	0,0205
474,0000	29,6906	0,0200
475,0000	29,7532	0,0178
476,0000	29,8159	0,0176
477,0000	29,8785	0,0176
478,0000	29,9411	0,0160
479,0000	30,0038	0,0158
480,0000	30,0664	0,0147
481,0000	30,1291	0,0147
482,0000	30,1917	0,0138
483,0000	30,2543	0,0118
484,0000	30,3170	0,0108
485,0000	30,3796	0,0110
486,0000	30,4422	0,0096
487,0000	30,5049	0,0080
488,0000	30,5675	0,0072
489,0000	30,6302	0,0075
490,0000	30,6928	0,0071
491,0000	30,7554	0,0057
492,0000	30,8181	0,0062
493,0000	30,8807	0,0062
494,0000	30,9434	0,0065
495,0000	31,0060	0,0052
496,0000	31,0686	0,0054
497,0000	31,1313	0,0068
498,0000	31,1939	0,0076
499,0000	31,2565	0,0070
500,0000	31,3192	0,0083
501,0000	31,3818	0,0094
502,0000	31,4445	0,0103
503,0000	31,5071	0,0105
504,0000	31,5697	0,0118
505,0000	31,6324	0,0136
506,0000	31,6950	0,0149
507,0000	31,7577	0,0152
508,0000	31,8203	0,0167
509,0000	31,8829	0,0180
510,0000	31,9456	0,0200
511,0000	32,0082	0,0194
512,0000	32,0708	0,0209
513,0000	32,1335	0,0222
514,0000	32,1961	0,0230
515,0000	32,2588	0,0230
516,0000	32,3214	0,0236
517,0000	32,3840	0,0249
518,0000	32,4467	0,0253
519,0000	32,5093	0,0239
520,0000	32,5720	0,0238
521,0000	32,6346	0,0249
522,0000	32,6972	0,0249
523,0000	32,7599	0,0236
524,0000	32,8225	0,0226
525,0000	32,8851	0,0230
526,0000	32,9478	0,0227
527,0000	33,0104	0,0212
528,0000	33,0731	0,0192
529,0000	33,1357	0,0194
530,0000	33,1983	0,0185
531,0000	33,2610	0,0168
532,0000	33,3236	0,0152
533,0000	33,3863	0,0151
534,0000	33,4489	0,0137
535,0000	33,5115	0,0118
536,0000	33,5742	0,0105
537,0000	33,6368	0,0108
538,0000	33,6994	0,0096
539,0000	33,7621	0,0077
540,0000	33,8247	0,0071
541,0000	33,8874	0,0080
542,0000	33,9500	0,0077
543,0000	34,0126	0,0059
544,0000	34,0753	0,0067
545,0000	34,1379	0,0074
546,0000	34,2006	0,0079
547,0000	34,2632	0,0076
548,0000	34,3258	0,0077
549,0000	34,3885	0,0105
550,0000	34,4511	0,0115
551,0000	34,5137	0,0123
552,0000	34,5764	0,0134
553,0000	34,6390	0,0154
554,0000	34,7017	0,0178
555,0000	34,7643	0,0183
556,0000	34,8269	0,0201
557,0000	34,8896	0,0231
558,0000	34,9522	0,0251
559,0000	35,0148	0,0260
560,0000	35,0775	0,0273
561,0000	35,1401	0,0297
562,0000	35,2028	0,0322
563,0000	35,2654	0,0325
564,0000	35,3280	0,0338
565,0000	35,3907	0,0360
566,0000	35,4533	0,0377
567,0000	35,5160	0,0373
568,0000	35,5786	0,0378
569,0000	35,6412	0,0389
570,0000	35,7039	0,0400
571,0000	35,7665	0,0381
572,0000	35,8291	0,0378
573,0000	35,8918	0,0387
574,0000	35,9544	0,0376
575,0000	36,0171	0,0354
576,0000	36,0797	0,0337
577,0000	36,1423	0,0329
578,0000	36,2050	0,0319
579,0000	36,2676	0,0294
580,0000	36,3303	0,0275
581,0000	36,3929	0,0258
582,0000	36,4555	0,0245
583,0000	36,5182	0,0220
584,0000	36,5808	0,0191
585,0000	36,6434	0,0180
586,0000	36,7061	0,0168
587,0000	36,7687	0,0141
588,0000	36,8314	0,0118
589,0000	36,8940	0,0115
590,0000	36,9566	0,0102
591,0000	37,0193	0,0083
592,0000	37,0819	0,0068
593,0000	37,1446	0,0070
594,0000	37,2072	0,0068
595,0000	37,2698	0,0049
596,0000	37,3325	0,0056
597,0000	37,3951	0,0065
598,0000	37,4577	0,0072
599,0000	37,5204	0,0079
600,0000	37,5830	0,0089
601,0000	37,6457	0,0114
602,0000	37,7083	0,0129
603,0000	37,7709	0,0150
604,0000	37,8336	0,0160
605,0000	37,8962	0,0190
606,0000	37,9589	0,0216
607,0000	38,0215	0,0242
608,0000	38,0841	0,0261
609,0000	38,1468	0,0296
610,0000	38,2094	0,0329
611,0000	38,2720	0,0346
612,0000	38,3347	0,0369
613,0000	38,3973	0,0402
614,0000	38,4600	0,0433
615,0000	38,5226	0,0440
616,0000	38,5852	0,0456
617,0000	38,6479	0,0486
618,0000	38,7105	0,0501
619,0000	38,7732	0,0505
620,0000	38,8358	0,0511
621,0000	38,8984	0,0527
622,0000	38,9611	0,0527
623,0000	39,0237	0,0518
624,0000	39,0863	0,0519
625,0000	39,1490	0,0513
626,0000	39,2116	0,0510
627,0000	39,2743	0,0486
628,0000	39,3369	0,0462
629,0000	39,3995	0,0446
630,0000	39,4622	0,0427
631,0000	39,5248	0,0395
632,0000	39,5875	0,0356
633,0000	39,6501	0,0338
634,0000	39,7127	0,0319
635,0000	39,7754	0,0278
636,0000	39,8380	0,0232
637,0000	39,9006	0,0218
638,0000	39,9633	0,0196
639,0000	40,0259	0,0158
640,0000	40,0886	0,0136
641,0000	40,1512	0,0121
642,0000	40,2138	0,0115
643,0000	40,2765	0,0096
644,0000	40,3391	0,0076
645,0000	40,4017	0,0075
646,0000	40,4644	0,0089
647,0000	40,5270	0,0084
648,0000	40,5897	0,0087
649,0000	40,6523	0,0106
650,0000	40,7149	0,0136
651,0000	40,7776	0,0146
652,0000	40,8402	0,0172
653,0000	40,9029	0,0205
654,0000	40,9655	0,0249
655,0000	41,0281	0,0280
656,0000	41,0908	0,0310
657,0000	41,1534	0,0375
658,0000	41,2160	0,0434
659,0000	41,2787	0,0468
660,0000	41,3413	0,0514
661,0000	41,4040	0,0566
662,0000	41,4666	0,0621
663,0000	41,5292	0,0664
664,0000	41,5919	0,0699
665,0000	41,6545	0,0746
666,0000	41,7172	0,0805
667,0000	41,7798	0,0828
668,0000	41,8424	0,0864
669,0000	41,9051	0,0899
670,0000	41,9677	0,0925
671,0000	42,0303	0,0938
672,0000	42,0930	0,0948
673,0000	42,1556	0,0961
674,0000	42,2183	0,0971
675,0000	42,2809	0,0957
676,0000	42,3435	0,0932
677,0000	42,4062	0,0926
678,0000	42,4688	0,0905
679,0000	42,5315	0,0868
680,0000	42,5941	0,0823
681,0000	42,6567	0,0796
682,0000	42,7194	0,0756
683,0000	42,7820	0,0697
684,0000	42,8446	0,0643
685,0000	42,9073	0,0594
686,0000	42,9699	0,0548
687,0000	43,0326	0,0489
688,0000	43,0952	0,0435
689,0000	43,1578	0,0387
690,0000	43,2205	0,0338
691,0000	43,2831	0,0296
692,0000	43,3458	0,0248
693,0000	43,4084	0,0223
694,0000	43,4710	0,0198
695,0000	43,5337	0,0172
696,0000	43,5963	0,0150
697,0000	43,6589	0,0134
698,0000	43,7216	0,0152
699,0000	43,7842	0,0150
700,0000	43,8469	0,0163
701,0000	43,9095	0,0191
702,0000	43,9721	0,0232
703,0000	44,0348	0,0278
704,0000	44,0974	0,0314
705,0000	44,1601	0,0381
706,0000	44,2227	0,0460
707,0000	44,2853	0,0527
708,0000	44,3480	0,0602
709,0000	44,4106	0,0687
710,0000	44,4732	0,0784
711,0000	44,5359	0,0869
712,0000	44,5985	0,0963
713,0000	44,6612	0,1063
714,0000	44,7238	0,1156
715,0000	44,7864	0,1236
716,0000	44,8491	0,1313
717,0000	44,9117	0,1401
718,0000	44,9744	0,1480
719,0000	45,0370	0,1546
720,0000	45,0996	0,1600
721,0000	45,1623	0,1660
722,0000	45,2249	0,1702
723,0000	45,2875	0,1736
724,0000	45,3502	0,1749
725,0000	45,4128	0,1763
726,0000	45,4755	0,1771
727,0000	45,5381	0,1750
728,0000	45,6007	0,1722
729,0000	45,6634	0,1697
730,0000	45,7260	0,1643
731,0000	45,7886	0,1573
732,0000	45,8513	0,1493
733,0000	45,9139	0,1419
734,0000	45,9766	0,1347
735,0000	46,0392	0,1249
736,0000	46,1018	0,1157
737,0000	46,1645	0,1058
738,0000	46,2271	0,0971
739,0000	46,2898	0,0859
740,0000	46,3524	0,0746
741,0000	46,4150	0,0652
742,0000	46,4777	0,0564
743,0000	46,5403	0,0470
744,0000	46,6029	0,0390
745,0000	46,6656	0,0333
746,0000	46,7282	0,0288
747,0000	46,7909	0,0240
748,0000	46,8535	0,0212
749,0000	46,9161	0,0211
750,0000	46,9788	0,0229
751,0000	47,0414	0,0263
752,0000	47,1041	0,0300
753,0000	47,1667	0,0381
754,0000	47,2293	0,0473
755,0000	47,2920	0,0586
756,0000	47,3546	0,0721
757,0000	47,4172	0,0882
758,0000	47,4799	0,1051
759,0000	47,5425	0,1250
760,0000	47,6052	0,1436
761,0000	47,6678	0,1665
762,0000	47,7304	0,1892
763,0000	47,7931	0,2123
764,0000	47,8557	0,2362
765,0000	47,9184	0,2615
766,0000	47,9810	0,2846
767,0000	48,0436	0,3083
768,0000	48,1063	0,3306
769,0000	48,1689	0,3539
770,0000	48,2315	0,3753
771,0000	48,2942	0,3956
772,0000	48,3568	0,4119
773,0000	48,4195	0,4277
774,0000	48,4821	0,4417
775,0000	48,5447	0,4511
776,0000	48,6074	0,4563
777,0000	48,6700	0,4612
778,0000	48,7327	0,4635
779,0000	48,7953	0,4625
780,0000	48,8579	0,4560
781,0000	48,9206	0,4478
782,0000	48,9832	0,4381
783,0000	49,0458	0,4221
784,0000	49,1085	0,4038
785,0000	49,1711	0,3856
786,0000	49,2338	0,3638
787,0000	49,2964	0,3382
788,0000	49,3590	0,3102
789,0000	49,4217	0,2837
790,0000	49,4843	0,2575
791,0000	49,5470	0,2283
792,0000	49,6096	0,2007
793,0000	49,6722	0,1755
794,0000	49,7349	0,1534
795,0000	49,7975	0,1324
796,0000	49,8601	0,1147
797,0000	49,9228	0,1049
798,0000	49,9854	0,0994
799,0000	50,0481	0,0998
800,0000	50,1107	0,1075
801,0000	50,1733	0,1241
802,0000	50,2360	0,1511
803,0000	50,2986	0,1856
804,0000	50,3613	0,2341
805,0000	50,4239	0,2985
806,0000	50,4865	0,3719
807,0000	50,5492	0,4567
808,0000	50,6118	0,5538
809,0000	50,6744	0,6651
810,0000	50,7371	0,7905
811,0000	50,7997	0,9257
812,0000	50,8624	1,0722
813,0000	50,9250	1,2358
814,0000	50,9876	1,4135
815,0000	51,0503	1,6011
816,0000	51,1129	1,8063
817,0000	51,1755	2,0284
818,0000	51,2382	2,2658
819,0000	51,3008	2,5229
820,0000	51,3635	2,7802
821,0000	51,4261	3,0420
822,0000	51,4887	3,3191
823,0000	51,5514	3,5983
824,0000	51,6140	3,8863
825,0000	51,6767	4,1869
826,0000	51,7393	4,4931
827,0000	51,8019	4,7983
828,0000	51,8646	5,1065
829,0000	51,9272	5,4133
830,0000	51,9898	5,7245
831,0000	52,0525	6,0179
832,0000	52,1151	6,3261
833,0000	52,1778	6,6266
834,0000	52,2404	6,9172
835,0000	52,3030	7,1918
836,0000	52,3657	7,4737
837,0000	52,4283	7,7341
838,0000	52,4910	7,9857
839,0000	52,5536	8,1999
840,0000	52,6162	8,4038
841,0000	52,6789	8,6040
842,0000	52,7415	8,7931
843,0000	52,8041	8,9487
844,0000	52,8668	9,0867
845,0000	52,9294	9,2093
846,0000	52,9921	9,3145
847,0000	53,0547	9,3871
848,0000	53,1173	9,4385
849,0000	53,1800	9,4514
850,0000	53,2426	9,4612
851,0000	53,3053	9,4427
852,0000	53,3679	9,4076
853,0000	53,4305	9,3322
854,0000	53,4932	9,2286
855,0000	53,5558	9,1138
856,0000	53,6184	8,9668
857,0000	53,6811	8,8214
858,0000	53,7437	8,6337
859,0000	53,8064	8,4175
860,0000	53,8690	8,2088
861,0000	53,9316	7,9876
862,0000	53,9943	7,7347
863,0000	54,0569	7,4689
864,0000	54,1196	7,1816
865,0000	54,1822	6,8982
866,0000	54,2448	6,5901
867,0000	54,3075	6,2988
868,0000	54,3701	5,9831
869,0000	54,4327	5,6716
870,0000	54,4954	5,3404
871,0000	54,5580	5,0275
872,0000	54,6207	4,7063
873,0000	54,6833	4,3949
874,0000	54,7459	4,0794
875,0000	54,8086	3,7682
876,0000	54,8712	3,4639
877,0000	54,9339	3,1765
878,0000	54,9965	2,8898
879,0000	55,0591	2,6128
880,0000	55,1218	2,3487
881,0000	55,1844	2,1107
882,0000	55,2470	1,8777
883,0000	55,3097	1,6559
884,0000	55,3723	1,4483
885,0000	55,4350	1,2582
886,0000	55,4976	1,0784
887,0000	55,5602	0,9188
888,0000	55,6229	0,7750
889,0000	55,6855	0,6491
890,0000	55,7482	0,5352
891,0000	55,8108	0,4326
892,0000	55,8734	0,3425
893,0000	55,9361	0,2664
894,0000	55,9987	0,2006
895,0000	56,0613	0,1458
896,0000	56,1240	0,1059
897,0000	56,1866	0,0784
898,0000	56,2493	0,0585
899,0000	56,3119	0,0479
900,0000	56,3745	0,0443
901,0000	56,4372	0,0502
902,0000	56,4998	0,0608
903,0000	56,5624	0,0752
904,0000	56,6251	0,0958
905,0000	56,6877	0,1208
906,0000	56,7504	0,1487
907,0000	56,8130	0,1784
908,0000	56,8756	0,2121
909,0000	56,9383	0,2458
910,0000	57,0009	0,2788
911,0000	57,0636	0,3098
912,0000	57,1262	0,3410
913,0000	57,1888	0,3716
914,0000	57,2515	0,3975
915,0000	57,3141	0,4227
916,0000	57,3767	0,4440
917,0000	57,4394	0,4648
918,0000	57,5020	0,4813
919,0000	57,5647	0,4935
920,0000	57,6273	0,5019
921,0000	57,6899	0,5094
922,0000	57,7526	0,5105
923,0000	57,8152	0,5090
924,0000	57,8779	0,5036
925,0000	57,9405	0,4950
926,0000	58,0031	0,4820
927,0000	58,0658	0,4680
928,0000	58,1284	0,4515
929,0000	58,1910	0,4337
930,0000	58,2537	0,4138
931,0000	58,3163	0,3898
932,0000	58,3790	0,3661
933,0000	58,4416	0,3416
934,0000	58,5042	0,3158
935,0000	58,5669	0,2880
936,0000	58,6295	0,2624
937,0000	58,6922	0,2376
938,0000	58,7548	0,2124
939,0000	58,8174	0,1860
940,0000	58,8801	0,1631
941,0000	58,9427	0,1421
942,0000	59,0053	0,1217
943,0000	59,0680	0,1027
944,0000	59,1306	0,0856
945,0000	59,1933	0,0705
946,0000	59,2559	0,0581
947,0000	59,3185	0,0455
948,0000	59,3812	0,0372
949,0000	59,4438	0,0306
950,0000	59,5065	0,0254
951,0000	59,5691	0,0223
952,0000	59,6317	0,0214
953,0000	59,6944	0,0236
954,0000	59,7570	0,0252
955,0000	59,8196	0,0284
956,0000	59,8823	0,0338
957,0000	59,9449	0,0408
958,0000	60,0076	0,0469
959,0000	60,0702	0,0540
960,0000	60,1328	0,0633
961,0000	60,1955	0,0719
962,0000	60,2581	0,0806
963,0000	60,3208	0,0896
964,0000	60,3834	0,0979
965,0000	60,4460	0,1072
966,0000	60,5087	0,1146
967,0000	60,5713	0,1217
968,0000	60,6339	0,1295
969,0000	60,6966	0,1353
970,0000	60,7592	0,1403
971,0000	60,8219	0,1435
972,0000	60,8845	0,1476
973,0000	60,9471	0,1499
974,0000	61,0098	0,1501
975,0000	61,0724	0,1497
976,0000	61,1351	0,1487
977,0000	61,1977	0,1475
978,0000	61,2603	0,1437
979,0000	61,3230	0,1390
980,0000	61,3856	0,1359
981,0000	61,4482	0,1313
982,0000	61,5109	0,1249
983,0000	61,5735	0,1184
984,0000	61,6362	0,1115
985,0000	61,6988	0,1047
986,0000	61,7614	0,0976
987,0000	61,8241	0,0889
988,0000	61,8867	0,0811
989,0000	61,9493	0,0746
990,0000	62,0120	0,0668
991,0000	62,0746	0,0582
992,0000	62,1373	0,0517
993,0000	62,1999	0,0464
994,0000	62,2625	0,0399
995,0000	62,3252	0,0334
996,0000	62,3878	0,0291
997,0000	62,4505	0,0257
998,0000	62,5131	0,0207
999,0000	62,5757	0,0176
1000,0000	62,6384	0,0159
1001,0000	62,7010	0,0154
1002,0000	62,7636	0,0145
1003,0000	62,8263	0,0142
1004,0000	62,8889	0,0158
1005,0000	62,9516	0,0176
1006,0000	63,0142	0,0187
1007,0000	63,0768	0,0214
1008,0000	63,1395	0,0251
1009,0000	63,2021	0,0292
1010,0000	63,2648	0,0324
1011,0000	63,3274	0,0359
1012,0000	63,3900	0,0418
1013,0000	63,4527	0,0464
1014,0000	63,5153	0,0508
1015,0000	63,5779	0,0540
1016,0000	63,6406	0,0602
1017,0000	63,7032	0,0650
1018,0000	63,7659	0,0681
1019,0000	63,8285	0,0713
1020,0000	63,8911	0,0749
1021,0000	63,9538	0,0788
1022,0000	64,0164	0,0801
1023,0000	64,0791	0,0815
1024,0000	64,1417	0,0836
1025,0000	64,2043	0,0846
1026,0000	64,2670	0,0842
1027,0000	64,3296	0,0829
1028,0000	64,3922	0,0830
1029,0000	64,4549	0,0821
1030,0000	64,5175	0,0793
1031,0000	64,5802	0,0761
1032,0000	64,6428	0,0741
1033,0000	64,7054	0,0715
1034,0000	64,7681	0,0666
1035,0000	64,8307	0,0629
1036,0000	64,8934	0,0586
1037,0000	64,9560	0,0550
1038,0000	65,0186	0,0510
1039,0000	65,0813	0,0456
1040,0000	65,1439	0,0418
1041,0000	65,2065	0,0373
1042,0000	65,2692	0,0332
1043,0000	65,3318	0,0285
1044,0000	65,3945	0,0257
1045,0000	65,4571	0,0226
1046,0000	65,5197	0,0182
1047,0000	65,5824	0,0158
1048,0000	65,6450	0,0149
1049,0000	65,7077	0,0128
1050,0000	65,7703	0,0110
1051,0000	65,8329	0,0101
1052,0000	65,8956	0,0103
1053,0000	65,9582	0,0099
1054,0000	66,0208	0,0107
1055,0000	66,0835	0,0108
1056,0000	66,1461	0,0124
1057,0000	66,2088	0,0145
1058,0000	66,2714	0,0155
1059,0000	66,3340	0,0170
1060,0000	66,3967	0,0201
1061,0000	66,4593	0,0231
1062,0000	66,5220	0,0247
1063,0000	66,5846	0,0266
1064,0000	66,6472	0,0301
1065,0000	66,7099	0,0336
1066,0000	66,7725	0,0344
1067,0000	66,8351	0,0371
1068,0000	66,8978	0,0407
1069,0000	66,9604	0,0431
1070,0000	67,0231	0,0444
1071,0000	67,0857	0,0457
1072,0000	67,1483	0,0484
1073,0000	67,2110	0,0496
1074,0000	67,2736	0,0501
1075,0000	67,3362	0,0501
1076,0000	67,3989	0,0518
1077,0000	67,4615	0,0520
1078,0000	67,5242	0,0508
1079,0000	67,5868	0,0500
1080,0000	67,6494	0,0489
1081,0000	67,7121	0,0488
1082,0000	67,7747	0,0471
1083,0000	67,8374	0,0448
1084,0000	67,9000	0,0437
1085,0000	67,9626	0,0424
1086,0000	68,0253	0,0381
1087,0000	68,0879	0,0356
1088,0000	68,1505	0,0342
1089,0000	68,2132	0,0325
1090,0000	68,2758	0,0285
1091,0000	68,3385	0,0258
1092,0000	68,4011	0,0242
1093,0000	68,4637	0,0226
1094,0000	68,5264	0,0189
1095,0000	68,5890	0,0165
1096,0000	68,6517	0,0168
1097,0000	68,7143	0,0146
1098,0000	68,7769	0,0123
1099,0000	68,8396	0,0107
1100,0000	68,9022	0,0106
1101,0000	68,9648	0,0099
1102,0000	69,0275	0,0080
1103,0000	69,0901	0,0071
1104,0000	69,1528	0,0092
1105,0000	69,2154	0,0087
1106,0000	69,2780	0,0074
1107,0000	69,3407	0,0085
1108,0000	69,4033	0,0102
1109,0000	69,4660	0,0114
1110,0000	69,5286	0,0115
1111,0000	69,5912	0,0129
1112,0000	69,6539	0,0150
1113,0000	69,7165	0,0169
1114,0000	69,7791	0,0174
1115,0000	69,8418	0,0190
1116,0000	69,9044	0,0222
1117,0000	69,9671	0,0240
1118,0000	70,0297	0,0245
1119,0000	70,0923	0,0251
1120,0000	70,1550	0,0282
1121,0000	70,2176	0,0301
1122,0000	70,2803	0,0306
1123,0000	70,3429	0,0320
1124,0000	70,4055	0,0346
1125,0000	70,4682	0,0351
1126,0000	70,5308	0,0338
1127,0000	70,5934	0,0344
1128,0000	70,6561	0,0356
1129,0000	70,7187	0,0354
1130,0000	70,7814	0,0344
1131,0000	70,8440	0,0342
1132,0000	70,9066	0,0349
1133,0000	70,9693	0,0332
1134,0000	71,0319	0,0319
1135,0000	71,0946	0,0306
1136,0000	71,1572	0,0302
1137,0000	71,2198	0,0280
1138,0000	71,2825	0,0262
1139,0000	71,3451	0,0248
1140,0000	71,4077	0,0240
1141,0000	71,4704	0,0223
1142,0000	71,5330	0,0192
1143,0000	71,5957	0,0177
1144,0000	71,6583	0,0180
1145,0000	71,7209	0,0161
1146,0000	71,7836	0,0133
1147,0000	71,8462	0,0129
1148,0000	71,9089	0,0121
1149,0000	71,9715	0,0114
1150,0000	72,0341	0,0092
1151,0000	72,0968	0,0084
1152,0000	72,1594	0,0096
1153,0000	72,2220	0,0084
1154,0000	72,2847	0,0068
1155,0000	72,3473	0,0071
1156,0000	72,4100	0,0087
1157,0000	72,4726	0,0079
1158,0000	72,5352	0,0077
1159,0000	72,5979	0,0079
1160,0000	72,6605	0,0093
1161,0000	72,7231	0,0099
1162,0000	72,7858	0,0102
1163,0000	72,8484	0,0108
1164,0000	72,9111	0,0123
1165,0000	72,9737	0,0127
1166,0000	73,0363	0,0132
1167,0000	73,0990	0,0141
1168,0000	73,1616	0,0161
1169,0000	73,2243	0,0172
1170,0000	73,2869	0,0170
1171,0000	73,3495	0,0178
1172,0000	73,4122	0,0191
1173,0000	73,4748	0,0198
1174,0000	73,5374	0,0189
1175,0000	73,6001	0,0204
1176,0000	73,6627	0,0216
1177,0000	73,7254	0,0216
1178,0000	73,7880	0,0212
1179,0000	73,8506	0,0216
1180,0000	73,9133	0,0225
1181,0000	73,9759	0,0220
1182,0000	74,0386	0,0207
1183,0000	74,1012	0,0207
1184,0000	74,1638	0,0218
1185,0000	74,2265	0,0212
1186,0000	74,2891	0,0191
1187,0000	74,3517	0,0186
1188,0000	74,4144	0,0189
1189,0000	74,4770	0,0185
1190,0000	74,5397	0,0159
1191,0000	74,6023	0,0155
1192,0000	74,6649	0,0161
1193,0000	74,7276	0,0149
1194,0000	74,7902	0,0124
1195,0000	74,8529	0,0118
1196,0000	74,9155	0,0115
1197,0000	74,9781	0,0114
1198,0000	75,0408	0,0093
1199,0000	75,1034	0,0085
1200,0000	75,1660	0,0093
1201,0000	75,2287	0,0090
1202,0000	75,2913	0,0076
1203,0000	75,3540	0,0072
1204,0000	75,4166	0,0075
1205,0000	75,4792	0,0066
1206,0000	75,5419	0,0063
1207,0000	75,6045	0,0070
1208,0000	75,6672	0,0074
1209,0000	75,7298	0,0074
1210,0000	75,7924	0,0071
1211,0000	75,8551	0,0066
1212,0000	75,9177	0,0085
1213,0000	75,9803	0,0089
1214,0000	76,0430	0,0084
1215,0000	76,1056	0,0094
1216,0000	76,1683	0,0110
1217,0000	76,2309	0,0106
1218,0000	76,2935	0,0107
1219,0000	76,3562	0,0112
1220,0000	76,4188	0,0121
1221,0000	76,4815	0,0120
1222,0000	76,5441	0,0118
1223,0000	76,6067	0,0130
1224,0000	76,6694	0,0142
1225,0000	76,7320	0,0136
1226,0000	76,7946	0,0130
1227,0000	76,8573	0,0141
1228,0000	76,9199	0,0146
1229,0000	76,9826	0,0145
1230,0000	77,0452	0,0139
1231,0000	77,1078	0,0136
1232,0000	77,1705	0,0154
1233,0000	77,2331	0,0143
1234,0000	77,2958	0,0137
1235,0000	77,3584	0,0136
1236,0000	77,4210	0,0139
1237,0000	77,4837	0,0143
1238,0000	77,5463	0,0125
1239,0000	77,6089	0,0129
1240,0000	77,6716	0,0130
1241,0000	77,7342	0,0118
1242,0000	77,7969	0,0106
1243,0000	77,8595	0,0103
1244,0000	77,9221	0,0107
1245,0000	77,9848	0,0099
1246,0000	78,0474	0,0088
1247,0000	78,1100	0,0085
1248,0000	78,1727	0,0093
1249,0000	78,2353	0,0079
1250,0000	78,2980	0,0067
1251,0000	78,3606	0,0068
1252,0000	78,4232	0,0080
1253,0000	78,4859	0,0072
1254,0000	78,5485	0,0066
1255,0000	78,6112	0,0062
1256,0000	78,6738	0,0067
1257,0000	78,7364	0,0065
1258,0000	78,7991	0,0059
1259,0000	78,8617	0,0070
1260,0000	78,9243	0,0071
1261,0000	78,9870	0,0070
1262,0000	79,0496	0,0065
1263,0000	79,1123	0,0076
1264,0000	79,1749	0,0088
1265,0000	79,2375	0,0076
1266,0000	79,3002	0,0087
1267,0000	79,3628	0,0092
1268,0000	79,4255	0,0096
1269,0000	79,4881	0,0096
1270,0000	79,5507	0,0101
1271,0000	79,6134	0,0099
1272,0000	79,6760	0,0112
1273,0000	79,7386	0,0112
1274,0000	79,8013	0,0105
1275,0000	79,8639	0,0118
1276,0000	79,9266	0,0123
1277,0000	79,9892	0,0121
1278,0000	80,0518	0,0115
1279,0000	80,1145	0,0127
1280,0000	80,1771	0,0125
1281,0000	80,2398	0,0123
1282,0000	80,3024	0,0110
1283,0000	80,3650	0,0124
1284,0000	80,4277	0,0129
1285,0000	80,4903	0,0116
1286,0000	80,5529	0,0110
1287,0000	80,6156	0,0116
1288,0000	80,6782	0,0115
1289,0000	80,7409	0,0107
1290,0000	80,8035	0,0098
1291,0000	80,8661	0,0110
1292,0000	80,9288	0,0102
1293,0000	80,9914	0,0094
1294,0000	81,0541	0,0089
1295,0000	81,1167	0,0092
1296,0000	81,1793	0,0096
1297,0000	81,2420	0,0089
1298,0000	81,3046	0,0083
1299,0000	81,3672	0,0081
1300,0000	81,4299	0,0089
1301,0000	81,4925	0,0072
1302,0000	81,5552	0,0066
1303,0000	81,6178	0,0068
1304,0000	81,6804	0,0074
1305,0000	81,7431	0,0061
1306,0000	81,8057	0,0059
1307,0000	81,8684	0,0065
1308,0000	81,9310	0,0071
1309,0000	81,9936	0,0058
1310,0000	82,0563	0,0058
1311,0000	82,1189	0,0067
1312,0000	82,1815	0,0074
1313,0000	82,2442	0,0059
1314,0000	82,3068	0,0061
1315,0000	82,3695	0,0071
1316,0000	82,4321	0,0079
1317,0000	82,4947	0,0065
1318,0000	82,5574	0,0076
1319,0000	82,6200	0,0080
1320,0000	82,6827	0,0087
1321,0000	82,7453	0,0079
1322,0000	82,8079	0,0072
1323,0000	82,8706	0,0089
1324,0000	82,9332	0,0093
1325,0000	82,9958	0,0090
1326,0000	83,0585	0,0084
1327,0000	83,1211	0,0097
1328,0000	83,1838	0,0102
1329,0000	83,2464	0,0094
1330,0000	83,3090	0,0089
1331,0000	83,3717	0,0098
1332,0000	83,4343	0,0105
1333,0000	83,4969	0,0092
1334,0000	83,5596	0,0092
1335,0000	83,6222	0,0106
1336,0000	83,6849	0,0105
1337,0000	83,7475	0,0088
1338,0000	83,8101	0,0093
1339,0000	83,8728	0,0103
1340,0000	83,9354	0,0097
1341,0000	83,9981	0,0084
1342,0000	84,0607	0,0083
1343,0000	84,1233	0,0089
1344,0000	84,1860	0,0089
1345,0000	84,2486	0,0077
1346,0000	84,3112	0,0076
1347,0000	84,3739	0,0080
1348,0000	84,4365	0,0081
1349,0000	84,4992	0,0067
1350,0000	84,5618	0,0067
1351,0000	84,6244	0,0067
1352,0000	84,6871	0,0074
1353,0000	84,7497	0,0066
1354,0000	84,8124	0,0054
1355,0000	84,8750	0,0072
1356,0000	84,9376	0,0068
1357,0000	85,0003	0,0057
1358,0000	85,0629	0,0058
1359,0000	85,1255	0,0067
1360,0000	85,1882	0,0070
1361,0000	85,2508	0,0061
1362,0000	85,3135	0,0056
1363,0000	85,3761	0,0068
1364,0000	85,4387	0,0065
1365,0000	85,5014	0,0058
1366,0000	85,5640	0,0056
1367,0000	85,6267	0,0071
1368,0000	85,6893	0,0071
1369,0000	85,7519	0,0061
1370,0000	85,8146	0,0059
1371,0000	85,8772	0,0067
1372,0000	85,9398	0,0070
1373,0000	86,0025	0,0067
1374,0000	86,0651	0,0068
1375,0000	86,1278	0,0076
1376,0000	86,1904	0,0077
1377,0000	86,2530	0,0058
1378,0000	86,3157	0,0071
1379,0000	86,3783	0,0081
1380,0000	86,4410	0,0079
1381,0000	86,5036	0,0068
1382,0000	86,5662	0,0071
1383,0000	86,6289	0,0074
1384,0000	86,6915	0,0077
1385,0000	86,7541	0,0067
1386,0000	86,8168	0,0066
1387,0000	86,8794	0,0076
1388,0000	86,9421	0,0081
1389,0000	87,0047	0,0071
1390,0000	87,0673	0,0068
1391,0000	87,1300	0,0071
1392,0000	87,1926	0,0071
1393,0000	87,2553	0,0063
1394,0000	87,3179	0,0065
1395,0000	87,3805	0,0075
1396,0000	87,4432	0,0071
1397,0000	87,5058	0,0067
1398,0000	87,5684	0,0063
1399,0000	87,6311	0,0063
1400,0000	87,6937	0,0066
1401,0000	87,7564	0,0061
1402,0000	87,8190	0,0059
1403,0000	87,8816	0,0070
1404,0000	87,9443	0,0068
1405,0000	88,0069	0,0054
1406,0000	88,0696	0,0058
1407,0000	88,1322	0,0068
1408,0000	88,1948	0,0062
1409,0000	88,2575	0,0050
1410,0000	88,3201	0,0058
1411,0000	88,3827	0,0061
1412,0000	88,4454	0,0063
1413,0000	88,5080	0,0049
1414,0000	88,5707	0,0053
1415,0000	88,6333	0,0070
1416,0000	88,6959	0,0066
1417,0000	88,7586	0,0054
1418,0000	88,8212	0,0057
1419,0000	88,8838	0,0067
1420,0000	88,9465	0,0065
1421,0000	89,0091	0,0056
1422,0000	89,0718	0,0058
1423,0000	89,1344	0,0068
1424,0000	89,1970	0,0062
1425,0000	89,2597	0,0061
1426,0000	89,3223	0,0053
1427,0000	89,3850	0,0068
1428,0000	89,4476	0,0068
1429,0000	89,5102	0,0066
1430,0000	89,5729	0,0059
1431,0000	89,6355	0,0076
1432,0000	89,6981	0,0071
1433,0000	89,7608	0,0062
1434,0000	89,8234	0,0063
1435,0000	89,8861	0,0074
1436,0000	89,9487	0,0068
1437,0000	90,0113	0,0061
1438,0000	90,0740	0,0062
1439,0000	90,1366	0,0076
1440,0000	90,1993	0,0066
1441,0000	90,2619	0,0062
1442,0000	90,3245	0,0063
1443,0000	90,3872	0,0075
1444,0000	90,4498	0,0067
1445,0000	90,5124	0,0057
1446,0000	90,5751	0,0063
1447,0000	90,6377	0,0068
1448,0000	90,7004	0,0066
1449,0000	90,7630	0,0062
1450,0000	90,8256	0,0059
1451,0000	90,8883	0,0070
1452,0000	90,9509	0,0062
1453,0000	91,0136	0,0052
1454,0000	91,0762	0,0058
1455,0000	91,1388	0,0068
1456,0000	91,2015	0,0061
1457,0000	91,2641	0,0061
1458,0000	91,3267	0,0056
1459,0000	91,3894	0,0068
1460,0000	91,4520	0,0059
1461,0000	91,5147	0,0054
1462,0000	91,5773	0,0058
1463,0000	91,6399	0,0068
1464,0000	91,7026	0,0057
1465,0000	91,7652	0,0054
1466,0000	91,8279	0,0050
1467,0000	91,8905	0,0065
1468,0000	91,9531	0,0065
1469,0000	92,0158	0,0056
1470,0000	92,0784	0,0056
1471,0000	92,1410	0,0059
1472,0000	92,2037	0,0061
1473,0000	92,2663	0,0056
1474,0000	92,3290	0,0059
1475,0000	92,3916	0,0065
1476,0000	92,4542	0,0065
1477,0000	92,5169	0,0057
1478,0000	92,5795	0,0058
1479,0000	92,6422	0,0065
1480,0000	92,7048	0,0062
1481,0000	92,7674	0,0058
1482,0000	92,8301	0,0062
1483,0000	92,8927	0,0071
1484,0000	92,9553	0,0062
1485,0000	93,0180	0,0050
1486,0000	93,0806	0,0067
1487,0000	93,1433	0,0070
1488,0000	93,2059	0,0061
1489,0000	93,2685	0,0057
1490,0000	93,3312	0,0061
1491,0000	93,3938	0,0074
1492,0000	93,4565	0,0057
1493,0000	93,5191	0,0053
1494,0000	93,5817	0,0061
1495,0000	93,6444	0,0067
1496,0000	93,7070	0,0058
1497,0000	93,7696	0,0053
1498,0000	93,8323	0,0062
1499,0000	93,8949	0,0070
1500,0000	93,9576	0,0059
1501,0000	94,0202	0,0054
1502,0000	94,0828	0,0058
1503,0000	94,1455	0,0061
1504,0000	94,2081	0,0063
1505,0000	94,2707	0,0057
1506,0000	94,3334	0,0062
1507,0000	94,3960	0,0065
1508,0000	94,4587	0,0062
1509,0000	94,5213	0,0054
1510,0000	94,5839	0,0065
1511,0000	94,6466	0,0062
1512,0000	94,7092	0,0059
1513,0000	94,7719	0,0057
1514,0000	94,8345	0,0058
1515,0000	94,8971	0,0071
1516,0000	94,9598	0,0058
1517,0000	95,0224	0,0056
1518,0000	95,0850	0,0068
1519,0000	95,1477	0,0065
1520,0000	95,2103	0,0056
1521,0000	95,2730	0,0057
1522,0000	95,3356	0,0063
1523,0000	95,3982	0,0062
1524,0000	95,4609	0,0053
1525,0000	95,5235	0,0054
1526,0000	95,5862	0,0057
1527,0000	95,6488	0,0072
1528,0000	95,7114	0,0054
1529,0000	95,7741	0,0043
1530,0000	95,8367	0,0058
1531,0000	95,8993	0,0065
1532,0000	95,9620	0,0053
1533,0000	96,0246	0,0052
1534,0000	96,0873	0,0062
1535,0000	96,1499	0,0062
1536,0000	96,2125	0,0061
1537,0000	96,2752	0,0061
1538,0000	96,3378	0,0063
1539,0000	96,4005	0,0068
1540,0000	96,4631	0,0054
1541,0000	96,5257	0,0059
1542,0000	96,5884	0,0066
1543,0000	96,6510	0,0071
1544,0000	96,7136	0,0059
1545,0000	96,7763	0,0050
1546,0000	96,8389	0,0065
1547,0000	96,9016	0,0074
1548,0000	96,9642	0,0061
1549,0000	97,0268	0,0059
1550,0000	97,0895	0,0063
1551,0000	97,1521	0,0066
1552,0000	97,2148	0,0056
1553,0000	97,2774	0,0057
1554,0000	97,3400	0,0070
1555,0000	97,4027	0,0068
1556,0000	97,4653	0,0059
1557,0000	97,5279	0,0057
1558,0000	97,5906	0,0066
1559,0000	97,6532	0,0066
1560,0000	97,7159	0,0052
1561,0000	97,7785	0,0052
1562,0000	97,8411	0,0063
1563,0000	97,9038	0,0068
1564,0000	97,9664	0,0054
1565,0000	98,0291	0,0054
1566,0000	98,0917	0,0062
1567,0000	98,1543	0,0067
1568,0000	98,2170	0,0056
1569,0000	98,2796	0,0052
1570,0000	98,3422	0,0065
1571,0000	98,4049	0,0065
1572,0000	98,4675	0,0054
1573,0000	98,5302	0,0059
1574,0000	98,5928	0,0054
1575,0000	98,6554	0,0067
1576,0000	98,7181	0,0052
1577,0000	98,7807	0,0050
1578,0000	98,8434	0,0056
1579,0000	98,9060	0,0066
1580,0000	98,9686	0,0049
1581,0000	99,0313	0,0052
1582,0000	99,0939	0,0070
1583,0000	99,1565	0,0062
1584,0000	99,2192	0,0054
1585,0000	99,2818	0,0062
1586,0000	99,3445	0,0063
1587,0000	99,4071	0,0063
1588,0000	99,4697	0,0056
1589,0000	99,5324	0,0057
1590,0000	99,5950	0,0068
1591,0000	99,6576	0,0062
1592,0000	99,7203	0,0048
1593,0000	99,7829	0,0059
1594,0000	99,8456	0,0066
1595,0000	99,9082	0,0066
1596,0000	99,9708	0,0050
1597,0000	100,0335	0,0058
1598,0000	100,0961	0,0063
1599,0000	100,1588	0,0061
1600,0000	100,2214	0,0049
1601,0000	100,2840	0,0058
1602,0000	100,3467	0,0066
1603,0000	100,4093	0,0066
1604,0000	100,4719	0,0053
1605,0000	100,5346	0,0053
1606,0000	100,5972	0,0062
1607,0000	100,6599	0,0062
1608,0000	100,7225	0,0058
1609,0000	100,7851	0,0057
1610,0000	100,8478	0,0061
1611,0000	100,9104	0,0067
1612,0000	100,9731	0,0049
1613,0000	101,0357	0,0054
1614,0000	101,0983	0,0061
1615,0000	101,1610	0,0068
1616,0000	101,2236	0,0059
1617,0000	101,2862	0,0054
1618,0000	101,3489	0,0067
1619,0000	101,4115	0,0057
1620,0000	101,4742	0,0053
1621,0000	101,5368	0,0057
1622,0000	101,5994	0,0067
1623,0000	101,6621	0,0067
1624,0000	101,7247	0,0054
1625,0000	101,7874	0,0057
1626,0000	101,8500	0,0074
1627,0000	101,9126	0,0068
1628,0000	101,9753	0,0058
1629,0000	102,0379	0,0056
1630,0000	102,1005	0,0071
1631,0000	102,1632	0,0068
1632,0000	102,2258	0,0066
1633,0000	102,2885	0,0065
1634,0000	102,3511	0,0068
1635,0000	102,4137	0,0067
1636,0000	102,4764	0,0056
1637,0000	102,5390	0,0067
1638,0000	102,6017	0,0075
1639,0000	102,6643	0,0071
1640,0000	102,7269	0,0057
1641,0000	102,7896	0,0068
1642,0000	102,8522	0,0071
1643,0000	102,9148	0,0075
1644,0000	102,9775	0,0071
1645,0000	103,0401	0,0070
1646,0000	103,1028	0,0085
1647,0000	103,1654	0,0083
1648,0000	103,2280	0,0076
1649,0000	103,2907	0,0087
1650,0000	103,3533	0,0102
1651,0000	103,4160	0,0099
1652,0000	103,4786	0,0088
1653,0000	103,5412	0,0094
1654,0000	103,6039	0,0110
1655,0000	103,6665	0,0103
1656,0000	103,7291	0,0099
1657,0000	103,7918	0,0105
1658,0000	103,8544	0,0119
1659,0000	103,9171	0,0114
1660,0000	103,9797	0,0111
1661,0000	104,0423	0,0119
1662,0000	104,1050	0,0134
1663,0000	104,1676	0,0132
1664,0000	104,2303	0,0125
1665,0000	104,2929	0,0127
1666,0000	104,3555	0,0143
1667,0000	104,4182	0,0143
1668,0000	104,4808	0,0130
1669,0000	104,5434	0,0130
1670,0000	104,6061	0,0150
1671,0000	104,6687	0,0136
1672,0000	104,7314	0,0134
1673,0000	104,7940	0,0136
1674,0000	104,8566	0,0152
1675,0000	104,9193	0,0160
1676,0000	104,9819	0,0156
1677,0000	105,0445	0,0163
1678,0000	105,1072	0,0180
1679,0000	105,1698	0,0182
1680,0000	105,2325	0,0177
1681,0000	105,2951	0,0194
1682,0000	105,3577	0,0207
1683,0000	105,4204	0,0205
1684,0000	105,4830	0,0198
1685,0000	105,5457	0,0213
1686,0000	105,6083	0,0226
1687,0000	105,6709	0,0229
1688,0000	105,7336	0,0227
1689,0000	105,7962	0,0232
1690,0000	105,8588	0,0254
1691,0000	105,9215	0,0247
1692,0000	105,9841	0,0245
1693,0000	106,0468	0,0251
1694,0000	106,1094	0,0269
1695,0000	106,1720	0,0258
1696,0000	106,2347	0,0249
1697,0000	106,2973	0,0262
1698,0000	106,3600	0,0269
1699,0000	106,4226	0,0269
1700,0000	106,4852	0,0258
1701,0000	106,5479	0,0261
1702,0000	106,6105	0,0263
1703,0000	106,6731	0,0253
1704,0000	106,7358	0,0240
1705,0000	106,7984	0,0242
1706,0000	106,8611	0,0238
1707,0000	106,9237	0,0230
1708,0000	106,9863	0,0205
1709,0000	107,0490	0,0204
1710,0000	107,1116	0,0199
1711,0000	107,1743	0,0183
1712,0000	107,2369	0,0165
1713,0000	107,2995	0,0163
1714,0000	107,3622	0,0159
1715,0000	107,4248	0,0146
1716,0000	107,4874	0,0125
1717,0000	107,5501	0,0127
1718,0000	107,6127	0,0130
1719,0000	107,6754	0,0119
1720,0000	107,7380	0,0108
1721,0000	107,8006	0,0112
1722,0000	107,8633	0,0129
1723,0000	107,9259	0,0121
1724,0000	107,9886	0,0120
1725,0000	108,0512	0,0132
1726,0000	108,1138	0,0146
1727,0000	108,1765	0,0145
1728,0000	108,2391	0,0143
1729,0000	108,3017	0,0147
1730,0000	108,3644	0,0159
1731,0000	108,4270	0,0152
1732,0000	108,4897	0,0139
1733,0000	108,5523	0,0149
1734,0000	108,6149	0,0154
1735,0000	108,6776	0,0145
1736,0000	108,7402	0,0133
1737,0000	108,8029	0,0143
1738,0000	108,8655	0,0152
1739,0000	108,9281	0,0147
1740,0000	108,9908	0,0136
1741,0000	109,0534	0,0142
1742,0000	109,1160	0,0155
1743,0000	109,1787	0,0152
1744,0000	109,2413	0,0143
1745,0000	109,3040	0,0155
1746,0000	109,3666	0,0156
1747,0000	109,4292	0,0151
1748,0000	109,4919	0,0145
1749,0000	109,5545	0,0147
1750,0000	109,6171	0,0146
1751,0000	109,6798	0,0134
1752,0000	109,7424	0,0132
1753,0000	109,8051	0,0133
1754,0000	109,8677	0,0133
1755,0000	109,9303	0,0123
1756,0000	109,9930	0,0120
1757,0000	110,0556	0,0118
1758,0000	110,1183	0,0120
1759,0000	110,1809	0,0114
1760,0000	110,2435	0,0105
1761,0000	110,3062	0,0115
1762,0000	110,3688	0,0115
1763,0000	110,4314	0,0111
1764,0000	110,4941	0,0102
1765,0000	110,5567	0,0099
1766,0000	110,6194	0,0123
1767,0000	110,6820	0,0106
1768,0000	110,7446	0,0101
1769,0000	110,8073	0,0107
1770,0000	110,8699	0,0124
1771,0000	110,9326	0,0115
1772,0000	110,9952	0,0106
1773,0000	111,0578	0,0107
1774,0000	111,1205	0,0121
1775,0000	111,1831	0,0116
1776,0000	111,2457	0,0110
1777,0000	111,3084	0,0118
1778,0000	111,3710	0,0127
1779,0000	111,4337	0,0116
1780,0000	111,4963	0,0112
1781,0000	111,5589	0,0123
1782,0000	111,6216	0,0123
1783,0000	111,6842	0,0121
1784,0000	111,7469	0,0112
1785,0000	111,8095	0,0111
1786,0000	111,8721	0,0127
1787,0000	111,9348	0,0121
1788,0000	111,9974	0,0107
1789,0000	112,0600	0,0125
1790,0000	112,1227	0,0123
1791,0000	112,1853	0,0119
1792,0000	112,2480	0,0107
1793,0000	112,3106	0,0123
1794,0000	112,3732	0,0127
1795,0000	112,4359	0,0121
1796,0000	112,4985	0,0110
1797,0000	112,5612	0,0127
1798,0000	112,6238	0,0133
1799,0000	112,6864	0,0125
1800,0000	112,7491	0,0120
1801,0000	112,8117	0,0134
1802,0000	112,8743	0,0132
1803,0000	112,9370	0,0127
1804,0000	112,9996	0,0121
1805,0000	113,0623	0,0128
1806,0000	113,1249	0,0138
1807,0000	113,1875	0,0127
1808,0000	113,2502	0,0121
1809,0000	113,3128	0,0124
1810,0000	113,3755	0,0136
1811,0000	113,4381	0,0121
1812,0000	113,5007	0,0115
1813,0000	113,5634	0,0132
1814,0000	113,6260	0,0136
1815,0000	113,6886	0,0134
1816,0000	113,7513	0,0127
1817,0000	113,8139	0,0137
1818,0000	113,8766	0,0138
1819,0000	113,9392	0,0128
1820,0000	114,0018	0,0125
1821,0000	114,0645	0,0142
1822,0000	114,1271	0,0151
1823,0000	114,1898	0,0129
1824,0000	114,2524	0,0130
1825,0000	114,3150	0,0137
1826,0000	114,3777	0,0139
1827,0000	114,4403	0,0125
1828,0000	114,5029	0,0129
1829,0000	114,5656	0,0136
1830,0000	114,6282	0,0139
1831,0000	114,6909	0,0125
1832,0000	114,7535	0,0121
1833,0000	114,8161	0,0128
1834,0000	114,8788	0,0134
1835,0000	114,9414	0,0120
1836,0000	115,0040	0,0118
1837,0000	115,0667	0,0132
1838,0000	115,1293	0,0125
1839,0000	115,1920	0,0120
1840,0000	115,2546	0,0124
1841,0000	115,3172	0,0129
1842,0000	115,3799	0,0129
1843,0000	115,4425	0,0115
1844,0000	115,5052	0,0107
1845,0000	115,5678	0,0108
1846,0000	115,6304	0,0120
1847,0000	115,6931	0,0107
1848,0000	115,7557	0,0114
1849,0000	115,8183	NaN
1850,0000	115,8810	0,0000
